LASERINDEX	WAVENUMBER	SPWNPOWER	SpWNQuant	SpQuantNorm	Wavelength	SpecWL	FluAbsRatio
Integer Laser Wavelength	cm^-1	nW/cm-1	photon/s/cm^-1	Norm intensity	nm	W/nm	Experimental Ratio
783	11340.38471	1.35683E-5	60244.64795	0.02608	881.8043	1.74494E-13	3.20497E-12
	11323.51253	1.37846E-5	61296.03709	0.02654	883.1182	1.76748E-13	3.26449E-12
	11306.68664	1.35978E-5	60555.47954	0.02621	884.4324	1.73836E-13	3.22705E-12
	11289.90941	1.34415E-5	59948.66617	0.02595	885.7467	1.71329E-13	3.17948E-12
	11273.17808	1.35645E-5	60586.86766	0.02623	887.0613	1.72384E-13	3.20919E-12
	11256.495	1.30622E-5	58429.57899	0.02529	888.376	1.65509E-13	3.11501E-12
	11239.85743	1.21986E-5	54647.23962	0.02366	889.691	1.5411E-13	2.93981E-12
	11223.26646	1.17006E-5	52494.16256	0.02272	891.0062	1.47383E-13	2.83254E-12
	11206.72314	1.12087E-5	50361.23895	0.0218	892.3215	1.4077E-13	2.70941E-12
	11190.22476	1.06954E-5	48125.6967	0.02083	893.6371	1.33928E-13	2.58122E-12
	11173.77239	1.02016E-5	45971.77146	0.0199	894.9529	1.27371E-13	2.45082E-12
	11157.36583	9.49558E-6	42852.93868	0.01855	896.2689	1.18207E-13	2.26348E-12
	11141.00614	8.93794E-6	40395.55707	0.01749	897.585	1.10939E-13	2.11559E-12
	11124.69065	8.72823E-6	39505.61051	0.0171	898.9014	1.08019E-13	2.05745E-12
	11108.4204	8.63121E-6	39123.71814	0.01694	900.218	1.06507E-13	2.03848E-12
	11092.19399	8.60248E-6	39050.52436	0.01691	901.5349	1.05842E-13	2.0423E-12
	11076.01491	8.72031E-6	39643.25598	0.01716	902.8518	1.06979E-13	2.07455E-12
	11059.87807	8.76234E-6	39892.45224	0.01727	904.1691	1.07182E-13	2.07655E-12
	11043.78696	8.82797E-6	40249.7884	0.01742	905.4865	1.07671E-13	2.08728E-12
	11027.74017	9.04928E-6	41318.86718	0.01789	906.8041	1.10049E-13	2.13581E-12
	11011.73752	9.32259E-6	42628.63093	0.01845	908.1219	1.13044E-13	2.17763E-12
	10995.77883	9.91301E-6	45394.1715	0.01965	909.4399	1.19855E-13	2.29208E-12
	10979.86271	1.06699E-5	48931.23666	0.02118	910.7582	1.28634E-13	2.45187E-12
	10963.9914	1.15572E-5	53076.91532	0.02298	912.0766	1.38928E-13	2.6303E-12
	10948.16231	1.26677E-5	58260.75197	0.02522	913.3953	1.51837E-13	2.8639E-12
	10932.37767	1.37836E-5	63484.65511	0.02748	914.7141	1.64737E-13	3.11504E-12
	10916.6349	1.49967E-5	69171.68357	0.02994	916.0332	1.7872E-13	3.36278E-12
	10900.93503	1.63511E-5	75527.23305	0.0327	917.3525	1.94301E-13	3.60787E-12
	10885.27906	1.73297E-5	80162.87421	0.0347	918.6719	2.05339E-13	3.76162E-12
	10869.66446	1.73461E-5	80353.9299	0.03479	919.9916	2.04944E-13	3.70979E-12
	10854.09224	1.68762E-5	78289.27409	0.03389	921.3115	1.98821E-13	3.58724E-12
	10838.56339	1.66489E-5	77345.53749	0.03348	922.6315	1.95582E-13	3.54878E-12
	10823.0754	1.65148E-5	76832.4295	0.03326	923.9518	1.93453E-13	3.53161E-12
	10807.62928	1.60931E-5	74977.52369	0.03246	925.2723	1.87976E-13	3.44129E-12
	10792.22485	1.5367E-5	71696.47534	0.03104	926.593	1.78982E-13	3.27732E-12
	10776.86195	1.44623E-5	67572.03545	0.02925	927.9139	1.67967E-13	3.06892E-12
	10761.54041	1.36353E-5	63798.64562	0.02762	929.235	1.57912E-13	2.87021E-12
	10746.26006	1.32203E-5	61944.67292	0.02682	930.5563	1.52671E-13	2.76478E-12
	10731.01959	1.30824E-5	61385.92048	0.02657	931.8779	1.50651E-13	2.73529E-12
	10715.82114	1.30677E-5	61403.78592	0.02658	933.1996	1.50055E-13	2.73349E-12
	10700.66339	1.31555E-5	61903.92515	0.0268	934.5215	1.50636E-13	2.7308E-12
	10685.54617	1.30916E-5	61690.269	0.02671	935.8436	1.49481E-13	2.68143E-12
	10670.4682	1.3017E-5	61425.32389	0.02659	937.166	1.4821E-13	2.6269E-12
	10655.43158	1.33778E-5	63217.01393	0.02737	938.4885	1.51889E-13	2.66279E-12
	10640.43388	1.43116E-5	67725.05296	0.02932	939.8113	1.62034E-13	2.81953E-12
	10625.47722	1.56137E-5	73990.64607	0.03203	941.1342	1.76279E-13	3.04225E-12
	10610.55916	1.71267E-5	81274.96885	0.03518	942.4574	1.92819E-13	3.28589E-12
	10595.68069	1.87255E-5	88986.92491	0.03852	943.7808	2.10229E-13	3.52535E-12
	10580.84277	2.04293E-5	97219.48518	0.04209	945.1043	2.28714E-13	3.76691E-12
	10566.043	2.2876E-5	109015.32634	0.04719	946.4281	2.5539E-13	4.12751E-12
	10551.28234	2.62903E-5	125461.61484	0.05431	947.7521	2.92689E-13	4.63562E-12
	10536.56176	3.0618E-5	146318.33207	0.06334	949.0762	3.39918E-13	5.26028E-12
	10521.87888	3.60046E-5	172300.2831	0.07459	950.4006	3.98607E-13	6.0322E-12
	10507.23465	4.18862E-5	200725.88224	0.08689	951.7252	4.62432E-13	6.88239E-12
	10492.62893	4.79723E-5	230211.41054	0.09966	953.05	5.28152E-13	7.72416E-12
	10478.06046	5.53462E-5	265966.80245	0.11514	954.3751	6.07644E-13	8.64111E-12
	10463.5313	6.43343E-5	309588.53141	0.13402	955.7003	7.04367E-13	9.69268E-12
	10449.04128	7.38356E-5	355803.18352	0.15403	957.0256	8.06155E-13	1.07746E-11
	10434.58698	8.30487E-5	400754.37247	0.17349	958.3513	9.04239E-13	1.17398E-11
	10420.17153	9.08731E-5	439117.81747	0.1901	959.6771	9.867E-13	1.24343E-11
	10405.7937	9.68466E-5	468630.0473	0.20287	961.0031	1.04866E-12	1.28598E-11
	10391.45332	1.02536E-4	496846.72698	0.21509	962.3293	1.10721E-12	1.32408E-11
	10377.14919	1.08211E-4	525066.68664	0.2273	963.6558	1.16527E-12	1.35967E-11
	10362.8833	1.12799E-4	548084.18242	0.23727	964.9824	1.21135E-12	1.37947E-11
	10348.65338	1.16653E-4	567588.20538	0.24571	966.3093	1.24929E-12	1.38901E-11
	10334.46034	1.19431E-4	581901.14337	0.25191	967.6364	1.27553E-12	1.38477E-11
	10320.30512	1.21965E-4	595065.98186	0.25761	968.9636	1.29904E-12	1.37665E-11
	10306.18543	1.27688E-4	623839.04001	0.27006	970.2911	1.35627E-12	1.39787E-11
	10292.10327	1.36581E-4	668201.51855	0.28927	971.6187	1.44677E-12	1.44432E-11
	10278.05637	1.47609E-4	723138.96986	0.31305	972.9466	1.55932E-12	1.50277E-11
	10264.04565	1.61494E-4	792244.49699	0.34296	974.2747	1.70135E-12	1.58234E-11
	10250.07098	1.75702E-4	863119.38705	0.37365	975.603	1.846E-12	1.66271E-11
	10236.13222	1.88879E-4	929110.90861	0.40221	976.9315	1.97904E-12	1.73108E-11
	10222.23026	2.04445E-4	1.00705E6	0.43596	978.2601	2.13633E-12	1.82943E-11
	10208.36185	2.21285E-4	1.09148E6	0.47251	979.5891	2.30603E-12	1.95088E-11
	10194.52998	2.3475E-4	1.15947E6	0.50194	980.9182	2.43972E-12	2.04384E-11
	10180.73347	2.42356E-4	1.19866E6	0.5189	982.2475	2.51196E-12	2.0937E-11
	10166.97218	2.40474E-4	1.19096E6	0.51557	983.577	2.48571E-12	2.07726E-11
	10153.24599	2.29541E-4	1.13835E6	0.4928	984.9067	2.3663E-12	1.99033E-11
	10139.55475	2.16319E-4	1.07423E6	0.46504	986.2366	2.22399E-12	1.8895E-11
	10125.89731	2.04272E-4	1.01577E6	0.43973	987.5668	2.09447E-12	1.80654E-11
	10112.27558	1.92437E-4	958207.97135	0.41481	988.8971	1.96782E-12	1.73037E-11
	10098.68842	1.80813E-4	901539.43968	0.39028	990.2276	1.84399E-12	1.6541E-11
	10085.13569	1.68651E-4	842029.75797	0.36452	991.5583	1.71535E-12	1.5686E-11
	10071.61624	1.5611E-4	780463.41894	0.33786	992.8893	1.58354E-12	1.47591E-11
	10058.13097	1.46035E-4	731074.01613	0.31648	994.2205	1.47738E-12	1.39671E-11
	10044.68075	1.38237E-4	692959.35751	0.29998	995.5518	1.39475E-12	1.3332E-11
	10031.26344	1.31251E-4	658821.51759	0.28521	996.8834	1.32073E-12	1.2837E-11
	10017.88092	1.25029E-4	628425.97135	0.27205	998.2151	1.25476E-12	1.24504E-11
	10004.53105	1.18064E-4	594213.44227	0.25724	999.5471	1.18171E-12	1.19362E-11
	9991.21772	1.10672E-4	557752.26993	0.24145	1000.879	1.10478E-12	1.139E-11
	9977.92882	1.05234E-4	531049.31709	0.22989	1002.212	1.0477E-12	1.1045E-11
	9964.68516	1.01233E-4	511540.37955	0.22145	1003.544	1.00519E-12	1.07766E-11
	9951.4667	9.74709E-5	493183.81617	0.2135	1004.877	9.65271E-13	1.05348E-11
	9938.28326	9.40102E-5	476304.26999	0.20619	1006.21	9.28534E-13	1.03704E-11
	9925.13471	8.99818E-5	456498.12395	0.19762	1007.543	8.86395E-13	1.0149E-11
	9912.01108	8.55608E-5	434644.33827	0.18816	1008.877	8.40618E-13	9.84606E-12
	9898.93191	8.23588E-5	418931.15594	0.18136	1010.21	8.07025E-13	9.65063E-12
	9885.87743	8.00859E-5	407907.55303	0.17658	1011.544	7.82684E-13	9.53671E-12
	9872.85734	7.80081E-5	397848.47198	0.17223	1012.878	7.60371E-13	9.41848E-12
	9859.87151	7.64442E-5	390385.8975	0.169	1014.212	7.43168E-13	9.3642E-12
	9846.91009	7.47522E-5	382247.74384	0.16548	1015.547	7.2481E-13	9.24532E-12
	9833.99237	7.24812E-5	371121.56567	0.16066	1016.881	7.00947E-13	9.02805E-12
	9821.09886	7.12579E-5	365337.0946	0.15816	1018.216	6.87311E-13	8.97526E-12
	9808.23912	7.16054E-5	367599.73538	0.15913	1019.551	6.88855E-13	9.09571E-12
	9795.40341	7.27517E-5	373974.14523	0.16189	1020.887	6.98052E-13	9.28969E-12
	9782.61082	7.43747E-5	382816.78096	0.16572	1022.222	7.11762E-13	9.5288E-12
	9769.84206	7.55364E-5	389304.75807	0.16853	1023.558	7.20994E-13	9.64894E-12
	9757.10659	7.62506E-5	393498.25602	0.17035	1024.894	7.25914E-13	9.70199E-12
	9744.40428	7.83595E-5	404908.5057	0.17529	1026.23	7.4405E-13	9.99188E-12
	9731.73499	8.17743E-5	423104.16401	0.18316	1027.566	7.74457E-13	1.04497E-11
	9719.09861	8.47391E-5	439014.0235	0.19005	1028.902	8.00453E-13	1.08196E-11
	9706.48558	8.70135E-5	451383.27466	0.19541	1030.239	8.19805E-13	1.11519E-11
	9693.90525	8.80857E-5	457538.11662	0.19807	1031.576	8.27757E-13	1.13908E-11
	9681.35748	8.75342E-5	455262.75906	0.19708	1032.913	8.20446E-13	1.14603E-11
	9668.84216	8.65486E-5	450719.72002	0.19512	1034.25	8.09113E-13	1.14962E-11
	9656.34982	8.5395E-5	445287.27285	0.19277	1035.588	7.96267E-13	1.14753E-11
	9643.88973	8.37045E-5	437035.92901	0.18919	1036.926	7.7849E-13	1.13631E-11
	9631.46175	8.16366E-5	426789.19261	0.18476	1038.264	7.57302E-13	1.12112E-11
	9619.06576	7.82798E-5	409767.53992	0.17739	1039.602	7.24295E-13	1.09089E-11
	9606.70164	7.37455E-5	386528.99992	0.16733	1040.94	6.80588E-13	1.04662E-11
	9594.36005	7.00119E-5	367431.72847	0.15906	1042.279	6.44472E-13	1.00764E-11
	9582.05932	6.74034E-5	354195.78104	0.15333	1043.617	6.1887E-13	9.80648E-12
	9569.78093	6.52881E-5	343520.48189	0.14871	1044.956	5.97913E-13	9.62455E-12
	9557.53397	6.35364E-5	334732.3348	0.14491	1046.295	5.80383E-13	9.46738E-12
	9545.3092	6.11093E-5	322357.5271	0.13955	1047.635	5.56784E-13	9.19521E-12
	9533.12475	5.80998E-5	306873.82219	0.13285	1048.974	5.28013E-13	8.83646E-12
	9520.9623	5.61666E-5	297042.07782	0.12859	1050.314	5.09143E-13	8.66647E-12
	9508.83085	5.50215E-5	291357.38147	0.12613	1051.654	4.97493E-13	8.68562E-12
	9496.73028	5.37512E-5	284993.5769	0.12337	1052.994	4.84771E-13	8.64262E-12
	9484.65146	5.25048E-5	278739.24968	0.12067	1054.335	4.72326E-13	8.47589E-12
	9472.61231	5.10152E-5	271175.82907	0.11739	1055.675	4.57762E-13	8.2623E-12
	9460.59473	4.92841E-5	262306.81562	0.11355	1057.016	4.41107E-13	8.05479E-12
	9448.60761	4.8096E-5	256307.63839	0.11096	1058.357	4.29382E-13	7.91164E-12
	9436.65082	4.75351E-5	253639.87482	0.1098	1059.698	4.23302E-13	7.88148E-12
	9424.71537	4.68396E-5	250245.10207	0.10833	1061.04	4.16054E-13	7.87796E-12
	9412.81894	4.57844E-5	244917.05943	0.10603	1062.381	4.05656E-13	7.81473E-12
	9400.94367	4.47064E-5	239452.28905	0.10366	1063.723	3.95105E-13	7.7179E-12
	9389.09832	4.36271E-5	233966.15605	0.10128	1065.065	3.84595E-13	7.58376E-12
	9377.28278	4.26832E-5	229192.56904	0.09922	1066.407	3.75328E-13	7.42747E-12
	9365.48818	4.19235E-5	225396.79956	0.09757	1067.75	3.67721E-13	7.30347E-12
	9353.73195	4.13227E-5	222445.98313	0.0963	1069.092	3.61542E-13	7.29997E-12
	9341.99648	4.09475E-5	220703.29809	0.09554	1070.435	3.57361E-13	7.37052E-12
	9330.29041	4.01658E-5	216761.36188	0.09384	1071.778	3.49661E-13	7.23292E-12
	9318.61365	3.88658E-5	210008.72193	0.09091	1073.121	3.37497E-13	6.92061E-12
	9306.95742	3.79582E-5	205361.56563	0.0889	1074.465	3.28792E-13	6.75533E-12
	9295.3303	3.75547E-5	203432.59694	0.08807	1075.809	3.24485E-13	6.75203E-12
	9283.74083	3.71534E-5	201509.6767	0.08723	1077.152	3.20217E-13	6.75615E-12
	9272.17162	3.67636E-5	199644.48965	0.08643	1078.496	3.16068E-13	6.77182E-12
	9260.62263	3.60767E-5	196158.82147	0.08492	1079.841	3.09391E-13	6.74991E-12
	9249.11093	3.50888E-5	191024.63013	0.0827	1081.185	3.00171E-13	6.58187E-12
	9237.61928	3.43384E-5	187171.92062	0.08103	1082.53	2.93022E-13	6.39278E-12
	9226.15615	3.37566E-5	184229.46794	0.07975	1083.875	2.87343E-13	6.37253E-12
	9214.72144	3.34722E-5	182903.98459	0.07918	1085.22	2.84216E-13	6.42882E-12
	9203.31503	3.33788E-5	182619.76959	0.07906	1086.565	2.82722E-13	6.39191E-12
	9191.92838	3.29937E-5	180735.94825	0.07824	1087.911	2.78768E-13	6.35706E-12
	9180.5783	3.24509E-5	177982.75862	0.07705	1089.256	2.73506E-13	6.33118E-12
	9169.24781	3.21811E-5	176720.97457	0.0765	1090.602	2.70563E-13	6.27104E-12
	9157.94525	3.20463E-5	176197.85127	0.07628	1091.948	2.68766E-13	6.2091E-12
	9146.66215	3.18533E-5	175352.50468	0.07591	1093.295	2.66489E-13	6.13347E-12
	9135.41517	3.18687E-5	175653.56112	0.07604	1094.641	2.65963E-13	6.12687E-12
	9124.18749	3.1795E-5	175462.71612	0.07596	1095.988	2.64696E-13	6.12572E-12
	9112.98737	3.15229E-5	174175.03523	0.0754	1097.335	2.61787E-13	6.03683E-12
	9101.81472	3.15979E-5	174803.65501	0.07567	1098.682	2.61766E-13	5.99978E-12
	9090.66943	3.2016E-5	177333.81234	0.07677	1100.029	2.64581E-13	6.02736E-12
	9079.54315	3.2493E-5	180196.72631	0.07801	1101.377	2.67866E-13	5.9875E-12
	9068.44408	3.28548E-5	182426.22717	0.07897	1102.725	2.70187E-13	5.89305E-12
	9057.37211	3.28961E-5	182878.40033	0.07917	1104.073	2.69866E-13	5.82946E-12
	9046.32715	3.30776E-5	184112.22116	0.0797	1105.421	2.70694E-13	5.85399E-12
	9035.30908	3.36718E-5	187648.25067	0.08123	1106.769	2.74886E-13	5.94249E-12
	9024.30969	3.43336E-5	191569.45178	0.08293	1108.118	2.79607E-13	6.02637E-12
	9013.33703	3.52521E-5	196933.4699	0.08525	1109.467	2.86389E-13	6.13112E-12
	9002.39104	3.64024E-5	203606.96091	0.08814	1110.816	2.95016E-13	6.27312E-12
	8991.47159	3.71123E-5	207829.89393	0.08997	1112.165	3.0004E-13	6.32266E-12
	8980.5786	3.7472E-5	210098.89209	0.09095	1113.514	3.02215E-13	6.26563E-12
	8969.70393	3.84348E-5	215758.13885	0.0934	1114.864	3.09229E-13	6.29689E-12
	8958.85556	3.99722E-5	224660.54674	0.09726	1116.214	3.20822E-13	6.39504E-12
	8948.0334	4.12613E-5	232186.02668	0.10051	1117.564	3.30368E-13	6.46344E-12
	8937.23736	4.19792E-5	236511.31732	0.10239	1118.914	3.35306E-13	6.51199E-12
	8926.46733	4.19724E-5	236758.01754	0.10249	1120.264	3.34444E-13	6.43749E-12
	8915.71529	4.1563E-5	234731.56169	0.10162	1121.615	3.30384E-13	6.29998E-12
	8904.98911	4.15272E-5	234811.72206	0.10165	1122.966	3.29306E-13	6.28085E-12
	8894.28871	4.18818E-5	237101.54149	0.10264	1124.317	3.3132E-13	6.32409E-12
	8883.614	4.20832E-5	238528.16683	0.10326	1125.668	3.32115E-13	6.29477E-12
	8872.957	4.19789E-5	238222.72911	0.10313	1127.02	3.30497E-13	6.15814E-12
	8862.3334	4.13626E-5	235006.55612	0.10173	1128.371	3.24865E-13	5.94902E-12
	8851.72737	4.01425E-5	228347.88614	0.09885	1129.723	3.14529E-13	5.72716E-12
	8841.1467	3.91366E-5	222892.31358	0.09649	1131.075	3.05915E-13	5.60065E-12
	8830.59129	3.85966E-5	220079.86289	0.09527	1132.427	3.00974E-13	5.53351E-12
	8820.05327	3.81787E-5	217956.95206	0.09435	1133.78	2.97005E-13	5.4502E-12
	8809.54038	3.79589E-5	216960.9362	0.09392	1135.133	2.94592E-13	5.42258E-12
	8799.06026	3.73559E-5	213768.25447	0.09254	1136.485	2.89222E-13	5.34123E-12
	8788.5896	3.62225E-5	207529.44387	0.08984	1137.839	2.7978E-13	5.14586E-12
	8778.15153	3.55683E-5	204023.79519	0.08832	1139.192	2.74075E-13	5.00815E-12
	8767.73823	3.52946E-5	202694.18775	0.08775	1140.545	2.71321E-13	4.9537E-12
	8757.34194	3.48989E-5	200659.68786	0.08687	1141.899	2.67643E-13	4.90657E-12
	8746.97027	3.46211E-5	199298.28214	0.08628	1143.253	2.64884E-13	4.83301E-12
	8736.62314	3.41114E-5	196596.74815	0.08511	1144.607	2.60367E-13	4.7152E-12
	8726.30046	3.32424E-5	191815.22797	0.08304	1145.961	2.53135E-13	4.59895E-12
	8715.99455	3.26104E-5	188390.98589	0.08155	1147.316	2.47737E-13	4.51117E-12
	8705.71295	3.22307E-5	186417.42959	0.0807	1148.671	2.44275E-13	4.45151E-12
	8695.45558	3.1882E-5	184617.83759	0.07992	1150.026	2.41063E-13	4.43907E-12
	8685.22235	3.16492E-5	183485.84641	0.07943	1151.381	2.3874E-13	4.44545E-12
	8675.01319	3.08739E-5	179201.96116	0.07758	1152.736	2.32345E-13	4.3771E-12
	8664.82048	2.92086E-5	169735.07109	0.07348	1154.092	2.19295E-13	4.17677E-12
	8654.65919	2.8205E-5	164095.42197	0.07104	1155.447	2.11264E-13	4.01816E-12
	8644.51423	2.80524E-5	163399.03375	0.07074	1156.803	2.09629E-13	3.97377E-12
	8634.39303	2.7721E-5	161658.51886	0.06998	1158.159	2.06668E-13	3.94203E-12
	8624.28807	2.74447E-5	160234.5755	0.06937	1159.516	2.04129E-13	3.9445E-12
	8614.21414	2.6988E-5	157752.47582	0.06829	1160.872	2.00264E-13	3.88703E-12
	8604.15632	2.61669E-5	153131.29358	0.06629	1162.229	1.93717E-13	3.74099E-12
	8594.12196	2.56433E-5	150242.73995	0.06504	1163.586	1.89399E-13	3.68724E-12
	8584.11098	2.54525E-5	149298.74388	0.06463	1164.943	1.87552E-13	3.73068E-12
	8574.11594	2.50337E-5	147013.25458	0.06364	1166.301	1.84036E-13	3.7286E-12
	8564.15149	2.43615E-5	143231.97495	0.06201	1167.658	1.78678E-13	3.65542E-12
	8554.20285	2.36313E-5	139100.39949	0.06022	1169.016	1.7292E-13	3.56674E-12
	8544.2773	2.28294E-5	134536.2607	0.05824	1170.374	1.66665E-13	3.4708E-12
	8534.37475	2.23196E-5	131684.7286	0.05701	1171.732	1.62566E-13	3.41749E-12
	8524.48787	2.21401E-5	130777.19501	0.05661	1173.091	1.60885E-13	3.41386E-12
	8514.63112	2.18775E-5	129375.74913	0.05601	1174.449	1.5861E-13	3.40739E-12
	8504.7899	2.16197E-5	127999.29438	0.05541	1175.808	1.56379E-13	3.40148E-12
	8494.9714	2.13448E-5	126517.5618	0.05477	1177.167	1.54034E-13	3.36504E-12
	8485.17555	2.08448E-5	123696.34373	0.05355	1178.526	1.50079E-13	3.27919E-12
	8475.39508	2.0371E-5	121024.34288	0.05239	1179.886	1.46329E-13	3.20021E-12
	8465.63713	2.00046E-5	118984.75081	0.05151	1181.246	1.43367E-13	3.14171E-12
	8455.90878	1.98241E-5	118046.47809	0.0511	1182.605	1.41747E-13	3.1077E-12
	8446.18849	1.99774E-5	119096.73081	0.05156	1183.966	1.42515E-13	3.10915E-12
	8436.49764	1.98198E-5	118292.77622	0.05121	1185.326	1.41067E-13	3.08593E-12
	8426.829	1.91615E-5	114494.6539	0.04957	1186.686	1.36068E-13	3.03028E-12
	8417.17541	1.85777E-5	111134.02249	0.04811	1188.047	1.31621E-13	2.95209E-12
	8407.54392	1.80988E-5	108392.9402	0.04692	1189.408	1.27934E-13	2.86518E-12
	8397.93444	1.78369E-5	106946.60265	0.0463	1190.769	1.25795E-13	2.86646E-12
	8388.34691	1.78681E-5	107256.42492	0.04643	1192.13	1.25728E-13	2.92228E-12
	8378.77422	1.76488E-5	106061.07036	0.04591	1193.492	1.23902E-13	2.89908E-12
	8369.23036	1.70588E-5	102632.04233	0.04443	1194.853	1.19486E-13	2.83308E-12
	8359.70122	1.66934E-5	100548.39502	0.04353	1196.215	1.16661E-13	2.78841E-12
	8350.19377	1.66346E-5	100308.26777	0.04342	1197.577	1.15986E-13	2.77734E-12
	8340.70095	1.65043E-5	99635.69049	0.04313	1198.94	1.14816E-13	2.8141E-12
	8331.23664	1.63531E-5	98834.87506	0.04279	1200.302	1.13506E-13	2.85232E-12
	8321.78685	1.60925E-5	97370.79502	0.04215	1201.665	1.11444E-13	2.8245E-12
	8312.35848	1.56178E-5	94605.54764	0.04095	1203.028	1.07912E-13	2.73889E-12
	8302.95145	1.5197E-5	92160.8001	0.0399	1204.391	1.04767E-13	2.65989E-12
	8293.56569	1.48711E-5	90286.48133	0.03909	1205.754	1.02288E-13	2.60298E-12
	8284.19425	1.46673E-5	89149.90353	0.03859	1207.118	1.00659E-13	2.56402E-12
	8274.84398	1.45543E-5	88563.03111	0.03834	1208.482	9.96578E-14	2.53474E-12
	8265.51478	1.42119E-5	86577.08743	0.03748	1209.846	9.70939E-14	2.49415E-12
	8256.2066	1.37726E-5	83995.78381	0.03636	1211.21	9.38811E-14	2.4537E-12
	8246.91936	1.35968E-5	83016.81137	0.03594	1212.574	9.24742E-14	2.445E-12
	8237.64621	1.35056E-5	82552.52663	0.03574	1213.939	9.16472E-14	2.44466E-12
	8228.39388	1.33073E-5	81432.07293	0.03525	1215.304	9.0099E-14	2.42315E-12
	8219.16232	1.30984E-5	80243.56726	0.03474	1216.669	8.84855E-14	2.40198E-12
	8209.95145	1.28764E-5	78972.30133	0.03419	1218.034	8.67912E-14	2.35967E-12
	8200.76119	1.26682E-5	77782.35046	0.03367	1219.399	8.51967E-14	2.29969E-12
	8191.58478	1.245E-5	76528.26494	0.03313	1220.765	8.3542E-14	2.2478E-12
	8182.43558	1.22821E-5	75580.42907	0.03272	1222.13	8.22312E-14	2.22374E-12
	8173.30012	1.22516E-5	75476.99014	0.03267	1223.496	8.18439E-14	2.24921E-12
	8164.17836	1.21546E-5	74963.34056	0.03245	1224.863	8.1015E-14	2.24258E-12
	8155.08359	1.18734E-5	73310.90185	0.03174	1226.229	7.89647E-14	2.17009E-12
	8146.00243	1.14075E-5	70512.31726	0.03052	1227.596	7.56969E-14	2.07933E-12
	8136.94147	1.10842E-5	68590.74034	0.02969	1228.963	7.33886E-14	2.02334E-12
	8127.90064	1.10564E-5	68494.48072	0.02965	1230.33	7.30415E-14	2.03678E-12
	8118.87989	1.09862E-5	68135.21758	0.0295	1231.697	7.24168E-14	2.03619E-12
	8109.87913	1.09422E-5	67937.87759	0.02941	1233.064	7.19672E-14	2.0303E-12
	8100.89175	1.08108E-5	67196.65483	0.02909	1234.432	7.09456E-14	2.03272E-12
	8091.92426	1.04268E-5	64881.3186	0.02809	1235.8	6.82738E-14	1.96712E-12
	8082.9766	1.01159E-5	63016.57608	0.02728	1237.168	6.60919E-14	1.89952E-12
	8074.04872	9.8941E-6	61702.92791	0.02671	1238.536	6.44999E-14	1.87824E-12
	8065.13402	9.80045E-6	61186.43391	0.02649	1239.905	6.37484E-14	1.87829E-12
	8056.24548	9.83549E-6	61472.92888	0.02661	1241.273	6.38353E-14	1.86685E-12
	8047.37004	9.49304E-6	59398.0644	0.02571	1242.642	6.14771E-14	1.76713E-12
	8038.51413	8.90067E-6	55752.94234	0.02414	1244.011	5.75141E-14	1.62109E-12
	8029.67769	8.80779E-6	55231.87238	0.02391	1245.38	5.67889E-14	1.58237E-12
	8020.85422	9.03314E-6	56707.31205	0.02455	1246.75	5.81139E-14	1.62403E-12
	8012.05012	9.19065E-6	57759.47108	0.025	1248.12	5.89975E-14	1.6516E-12
	8003.26533	9.54496E-6	60052.0198	0.026	1249.49	6.11376E-14	1.70176E-12
	7994.49978	9.58283E-6	60356.41619	0.02613	1250.86	6.12458E-14	1.68358E-12
	7985.75342	8.96966E-6	56556.2516	0.02448	1252.23	5.72015E-14	1.56149E-12
	7977.02616	8.53349E-6	53864.97991	0.02332	1253.6	5.43011E-14	1.48589E-12
	7968.31162	8.42054E-6	53210.12671	0.02303	1254.971	5.34654E-14	1.45667E-12
	7959.61609	8.48699E-6	53688.66193	0.02324	1256.342	5.37698E-14	1.47011E-12
	7950.93952	8.88827E-6	56288.49219	0.02437	1257.713	5.61894E-14	1.54521E-12
	7942.27554	9.03242E-6	57263.78416	0.02479	1259.085	5.69763E-14	1.5472E-12
	7933.63672	8.75268E-6	55550.71511	0.02405	1260.456	5.50917E-14	1.48696E-12
	7925.01038	8.82211E-6	56052.29973	0.02427	1261.828	5.5408E-14	1.51447E-12
	7916.40279	9.24014E-6	58772.12513	0.02544	1263.2	5.79074E-14	1.5966E-12
	7907.81387	9.42873E-6	60036.80189	0.02599	1264.572	5.89612E-14	1.60852E-12
	7899.24357	9.40083E-6	59924.06946	0.02594	1265.944	5.86593E-14	1.57675E-12
	7890.6856	9.30289E-6	59364.09683	0.0257	1267.317	5.79225E-14	1.5591E-12
	7882.14615	9.24509E-6	59059.15351	0.02557	1268.69	5.74381E-14	1.55921E-12
	7873.62517	9.20101E-6	58841.21995	0.02547	1270.063	5.70407E-14	1.54582E-12
	7865.12259	8.89652E-6	56955.43617	0.02466	1271.436	5.5034E-14	1.47237E-12
	7856.63835	8.75237E-6	56093.11496	0.02428	1272.809	5.40255E-14	1.45179E-12
	7848.16624	8.98297E-6	57633.15877	0.02495	1274.183	5.53294E-14	1.51332E-12
	7839.71238	9.20793E-6	59140.19981	0.0256	1275.557	5.6593E-14	1.54687E-12
	7831.27671	9.25386E-6	59499.17198	0.02576	1276.931	5.67529E-14	1.54118E-12
	7822.85918	9.12675E-6	58745.07985	0.02543	1278.305	5.58531E-14	1.52568E-12
	7814.45972	9.014E-6	58081.73564	0.02514	1279.679	5.50447E-14	1.52093E-12
	7806.07219	8.88101E-6	57286.24163	0.0248	1281.054	5.41162E-14	1.46612E-12
	7797.70264	8.68154E-6	56059.70209	0.02427	1282.429	5.27874E-14	1.40644E-12
	7789.35102	8.58825E-6	55516.77421	0.02403	1283.804	5.21083E-14	1.41985E-12
	7781.01727	8.50848E-6	55060.00441	0.02384	1285.179	5.15139E-14	1.41517E-12
	7772.70134	8.5543E-6	55415.78312	0.02399	1286.554	5.16807E-14	1.40903E-12
	7764.39713	8.82184E-6	57210.03242	0.02477	1287.93	5.31832E-14	1.44275E-12
	7756.11065	8.91021E-6	57844.84192	0.02504	1289.306	5.36014E-14	1.43674E-12
	7747.84184	8.87603E-6	57684.43926	0.02497	1290.682	5.3282E-14	1.42554E-12
	7739.59064	8.70637E-6	56642.16189	0.02452	1292.058	5.21522E-14	1.41906E-12
	7731.35101	8.47475E-6	55194.0686	0.02389	1293.435	5.06568E-14	1.39268E-12
	7723.13488	8.33677E-6	54353.17509	0.02353	1294.811	4.97262E-14	1.36324E-12
	7714.93024	8.0161E-6	52318.08129	0.02265	1296.188	4.77119E-14	1.31507E-12
	7706.74301	7.80775E-6	51012.40209	0.02208	1297.565	4.63733E-14	1.26961E-12
	7698.56722	7.9209E-6	51806.60877	0.02243	1298.943	4.69455E-14	1.25794E-12
	7690.41467	7.99326E-6	52335.35418	0.02266	1300.32	4.72741E-14	1.25649E-12
	7682.27346	7.97076E-6	52243.33778	0.02262	1301.698	4.70413E-14	1.2372E-12
	7674.14947	7.96327E-6	52249.45518	0.02262	1303.076	4.68977E-14	1.21481E-12
	7666.04265	7.81182E-6	51309.98323	0.02221	1304.454	4.59087E-14	1.19197E-12
	7657.95294	7.59417E-6	49933.10419	0.02162	1305.832	4.45355E-14	1.17439E-12
	7649.87443	7.48838E-6	49289.4656	0.02134	1307.211	4.38224E-14	1.16483E-12
	7641.81878	7.4592E-6	49149.18476	0.02128	1308.589	4.35598E-14	1.14014E-12
	7633.77426	7.38099E-6	48685.09627	0.02108	1309.968	4.30124E-14	1.11176E-12
	7625.74666	7.2752E-6	48037.84806	0.0208	1311.347	4.23068E-14	1.11649E-12
	7617.73011	7.26317E-6	48008.84605	0.02078	1312.727	4.2148E-14	1.14163E-12
	7609.7362	7.19289E-6	47594.23177	0.0206	1314.106	4.16526E-14	1.12971E-12
	7601.75327	7.01793E-6	46485.36649	0.02012	1315.486	4.05543E-14	1.07239E-12
	7593.78707	6.8626E-6	45504.16175	0.0197	1316.866	3.95736E-14	1.01904E-12
	7585.83754	6.87532E-6	45636.26169	0.01976	1318.246	3.9564E-14	1.02488E-12
	7577.90465	6.74676E-6	44829.83267	0.01941	1319.626	3.8743E-14	1.02663E-12
	7569.9826	6.39333E-6	42525.85161	0.01841	1321.007	3.66367E-14	9.73123E-13
	7562.07709	6.38169E-6	42492.82971	0.0184	1322.388	3.64937E-14	9.50114E-13
	7554.18808	6.58514E-6	43893.28133	0.019	1323.769	3.75786E-14	9.66086E-13
	7546.31551	6.58691E-6	43950.85966	0.01903	1325.15	3.75104E-14	9.67244E-13
	7538.45933	6.45368E-6	43106.79462	0.01866	1326.531	3.66752E-14	9.46891E-13
	7530.61383	6.61263E-6	44214.51494	0.01914	1327.913	3.75003E-14	9.64757E-13
	7522.78463	6.77595E-6	45353.65773	0.01963	1329.295	3.83467E-14	9.89058E-13
	7514.9717	6.39069E-6	42819.44126	0.01854	1330.677	3.60913E-14	9.38644E-13
	7507.17498	6.09659E-6	40891.29635	0.0177	1332.059	3.43589E-14	8.96297E-13
	7499.39442	5.90781E-6	39666.2438	0.01717	1333.441	3.32261E-14	8.62158E-13
	7491.62436	5.38905E-6	36220.72882	0.01568	1334.824	3.02458E-14	7.73424E-13
	7483.87039	5.15858E-6	34707.6319	0.01503	1336.207	2.88924E-14	7.42851E-13
	7476.13245	5.32558E-6	35868.28284	0.01553	1337.59	2.9766E-14	7.83258E-13
	7468.41049	5.33501E-6	35968.95236	0.01557	1338.973	2.97572E-14	7.74523E-13
	7460.70447	5.17316E-6	34913.80581	0.01511	1340.356	2.87949E-14	7.33558E-13
	7453.00878	5.15149E-6	34803.4559	0.01507	1341.74	2.86152E-14	7.16531E-13
	7445.32895	5.02457E-6	33980.98922	0.01471	1343.124	2.78527E-14	6.72104E-13
	7437.66493	4.78983E-6	32426.79349	0.01404	1344.508	2.64968E-14	6.29882E-13
	7430.01667	4.78125E-6	32402.06221	0.01403	1345.892	2.6395E-14	6.414E-13
	7422.37862	4.76856E-6	32349.29756	0.014	1347.277	2.62708E-14	6.41934E-13
	7414.76175	4.77998E-6	32460.06106	0.01405	1348.661	2.62797E-14	6.37511E-13
	7407.15502	4.66663E-6	31722.91337	0.01373	1350.046	2.56039E-14	6.25213E-13
	7399.56387	4.41072E-6	30014.00749	0.01299	1351.431	2.41502E-14	5.94121E-13
	7391.9828	4.27716E-6	29135.02556	0.01261	1352.817	2.3371E-14	5.75195E-13
	7384.42271	4.0571E-6	27664.32363	0.01198	1354.202	2.21233E-14	5.37531E-13
	7376.87262	3.92189E-6	26769.7319	0.01159	1355.588	2.13422E-14	5.02952E-13
	7369.33795	3.85489E-6	26339.26862	0.0114	1356.974	2.09348E-14	4.80898E-13
	7361.81866	3.75003E-6	25649.01747	0.0111	1358.36	2.03238E-14	4.61378E-13
	7354.3147	3.869E-6	26489.73871	0.01147	1359.746	2.09259E-14	4.68811E-13
	7346.82602	3.75944E-6	25765.83578	0.01115	1361.132	2.02919E-14	4.55784E-13
	7339.34719	3.11767E-6	21389.18048	0.00926	1362.519	1.67937E-14	3.84179E-13
	7331.88358	2.80594E-6	19270.06751	0.00834	1363.906	1.50837E-14	3.4297E-13
	7324.43512	3.2265E-6	22180.82112	0.0096	1365.293	1.73093E-14	3.92002E-13
	7316.99643	3.55619E-6	24472.20301	0.01059	1366.681	1.90393E-14	4.49151E-13
	7309.57818	3.30593E-6	22773.08712	0.00986	1368.068	1.76636E-14	4.31326E-13
	7302.16962	3.04551E-6	21000.47896	0.00909	1369.456	1.62392E-14	3.77641E-13
	7294.77606	2.91489E-6	20120.1189	0.00871	1370.844	1.55112E-14	3.24862E-13
	7287.39747	2.67792E-6	18503.1613	0.00801	1372.232	1.42214E-14	2.82688E-13
	7280.03378	2.56723E-6	17756.27991	0.00769	1373.62	1.3606E-14	2.75325E-13
	7272.67967	2.72343E-6	18855.66364	0.00816	1375.009	1.44047E-14	2.88846E-13
	7265.3404	3.06042E-6	21210.25618	0.00918	1376.398	1.61545E-14	3.13422E-13
	7258.01593	2.99529E-6	20779.80853	0.009	1377.787	1.57788E-14	3.22502E-13
	7250.70622	2.63098E-6	18270.78407	0.00791	1379.176	1.38318E-14	3.27747E-13
	7243.41121	2.43408E-6	16920.50544	0.00732	1380.565	1.27709E-14	3.13447E-13
	7236.12563	2.21955E-6	15444.7081	0.00669	1381.955	1.16219E-14	2.90711E-13
	7228.85992	2.09195E-6	14571.46615	0.00631	1383.344	1.09318E-14	3.37739E-13
	7221.60357	1.94392E-6	13553.95817	0.00587	1384.734	1.01379E-14	3.35132E-13
	7214.35657	1.978E-6	13805.3826	0.00598	1386.125	1.02949E-14	3.23754E-13
	7207.12929	2.3439E-6	16375.62198	0.00709	1387.515	1.21749E-14	3.86391E-13
	7199.9113	2.21914E-6	15519.50033	0.00672	1388.906	1.15037E-14	3.97748E-13
	7192.70775	1.43428E-6	10040.64117	0.00435	1390.297	7.42024E-15	2.52119E-13
	7185.52376	8.96602E-7	6282.92791	0.00272	1391.687	4.62931E-15	1.70435E-13
	7178.3438	1.03537E-6	7262.5804	0.00314	1393.079	5.3351E-15	4.25618E-13
	7171.18332	1.32972E-6	9336.62994	0.00404	1394.47	6.8382E-15	4.23793E-13
	7164.03197	1.41381E-6	9936.96959	0.0043	1395.862	7.25614E-15	1.78247E-13
	7156.89488	1.33276E-6	9376.63037	0.00406	1397.254	6.82653E-15	1.48031E-13
	7149.77199	1.17347E-6	8264.18579	0.00358	1398.646	5.99868E-15	1.41288E-13
	7142.66327	1.31056E-6	9238.82495	0.004	1400.038	6.68616E-15	1.57317E-13
	7135.56867	1.64613E-6	11616.00026	0.00503	1401.43	8.3815E-15	2.82006E-13
	7128.48307	1.44338E-6	10195.43635	0.00441	1402.823	7.3346E-15	3.41823E-13
	7121.41152	8.24493E-7	5829.64031	0.00252	1404.216	4.18138E-15	1.44078E-13
	7114.35399	4.05148E-7	2867.47002	0.00124	1405.609	2.05062E-15	6.14662E-14
	7107.31044	5.18993E-7	3676.86071	0.00159	1407.002	2.62164E-15	9.37171E-14
	7100.27577	8.85439E-7	6279.19639	0.00272	1408.396	4.46384E-15	1.90687E-13
	7093.26006	1.03129E-6	7320.72967	0.00317	1409.789	5.18885E-15	2.12561E-13
	7086.25316	1.00817E-6	7163.71353	0.0031	1411.183	5.06253E-15	1.60391E-13
	7079.2601	8.83846E-7	6286.50925	0.00272	1412.577	4.42948E-15	1.12061E-13
	7072.27583	6.67649E-7	4753.45998	0.00206	1413.972	3.33939E-15	8.93165E-14
	7065.31032	3.93248E-7	2802.56777	0.00121	1415.366	1.96304E-15	7.09582E-14
	7058.35353	1.68001E-7	1198.4743	5.18823E-4	1416.761	8.36986E-16	2.5344E-14
	7051.41042	2.00048E-7	1428.49447	6.18399E-4	1418.156	9.94685E-16	2.08613E-14
	7044.48097	3.60279E-7	2575.19591	0.00111	1419.551	1.78787E-15	3.63544E-14
	7037.56512	2.92332E-7	2091.57744	9.05449E-4	1420.946	1.44784E-15	2.62018E-14
	7030.65789	2.62425E-7	1879.44642	8.13617E-4	1422.342	1.29717E-15	2.05348E-14
	7023.7642	6.51151E-7	4668.01572	0.00202	1423.738	3.21234E-15	7.17562E-14
	7016.88895	9.56905E-7	6866.65327	0.00297	1425.133	4.71149E-15	1.97023E-13
	7010.01731	8.07399E-7	5799.49204	0.00251	1426.53	3.96759E-15	2.04798E-13
	7003.16403	5.06951E-7	3644.95745	0.00158	1427.926	2.48631E-15	6.13651E-14
	6996.31924	2.68526E-7	1932.58301	8.3662E-4	1429.323	1.3144E-15	1.35677E-14
	6989.4927	2.84859E-7	2052.13281	8.88374E-4	1430.719	1.39162E-15	1.41108E-14
	6982.67459	6.26118E-7	4514.97036	0.00195	1432.116	3.05281E-15	7.52721E-14
	6975.86977	6.55109E-7	4728.63366	0.00205	1433.513	3.18794E-15	1.28122E-13
	6969.07334	2.4559E-7	1774.41695	7.6815E-4	1434.911	1.19278E-15	2.51785E-14
	6962.295	5.00343E-8	361.85616	1.56648E-4	1436.308	2.42534E-16	4.46911E-15
	6955.52498	-1.10362E-7	-798.93354	-3.4586E-4	1437.706	-5.33924E-16	-2.06319E-14
	6948.76812	-4.10366E-7	-2973.61512	-0.00129	1439.104	-1.98147E-15	-1.05032E-13
	6942.02438	-4.21532E-7	-3057.49227	-0.00132	1440.502	-2.03144E-15	-3.62048E-14
	6935.2889	-6.12647E-9	-44.48015	-1.92556E-5	1441.901	-2.94672E-17	-4.19114E-16
	6928.57128	5.99563E-7	4357.24717	0.00189	1443.299	2.87821E-15	7.33617E-14
	6921.86187	8.74402E-7	6360.75886	0.00275	1444.698	4.18945E-15	1.37647E-13
	6915.16544	7.61118E-7	5542.04907	0.0024	1446.097	3.63963E-15	7.19086E-14
	6908.48196	6.7345E-7	4908.43936	0.00212	1447.496	3.21418E-15	8.27556E-14
	6901.80662	4.19045E-7	3057.1619	0.00132	1448.896	1.99612E-15	6.86826E-14
	6895.14892	2.05517E-7	1500.80665	6.49703E-4	1450.295	9.77091E-16	2.02907E-14
	6888.49931	4.88661E-7	3571.9403	0.00155	1451.695	2.31877E-15	4.91155E-14
	6881.86251	7.76267E-7	5679.70812	0.00246	1453.095	3.6764E-15	7.02233E-14
	6875.23848	6.89716E-7	5051.29944	0.00219	1454.495	3.26021E-15	3.49502E-14
	6868.62248	2.91698E-7	2138.37707	9.25709E-4	1455.896	1.37617E-15	1.49163E-14
	6862.0192	-2.84561E-7	-2088.06642	-9.03929E-4	1457.297	-1.33992E-15	-3.11352E-14
	6855.42861	-3.5859E-7	-2633.80634	-0.00114	1458.698	-1.68526E-15	-9.8336E-14
	6848.85066	6.19872E-7	4557.27663	0.00197	1460.099	2.90762E-15	1.44236E-13
	6842.28532	1.08458E-6	7981.4059	0.00346	1461.5	5.07764E-15	1.62376E-13
	6835.73256	3.14513E-7	2316.72363	0.001	1462.901	1.46963E-15	4.18319E-14
	6829.18767	8.09006E-8	596.49016	2.58222E-4	1464.303	3.77302E-16	1.17343E-14
	6822.65531	2.55057E-7	1882.37048	8.14883E-4	1465.705	1.18726E-15	5.52446E-14
	6816.13543	1.64431E-7	1214.69011	5.25843E-4	1467.107	7.6394E-16	3.54666E-14
	6809.628	5.681E-7	4200.70682	0.00182	1468.509	2.63434E-15	6.32751E-14
	6803.12835	7.78742E-7	5763.75794	0.0025	1469.912	3.60422E-15	8.16487E-14
	6796.64572	2.2836E-7	1691.78893	7.3238E-4	1471.314	1.0549E-15	3.45246E-14
	6790.17082	1.03308E-7	766.07671	3.31637E-4	1472.717	4.76314E-16	1.38942E-14
	6783.70825	5.39883E-7	4007.30924	0.00173	1474.12	2.48447E-15	4.06205E-14
	6777.25337	5.75613E-7	4276.58856	0.00185	1475.524	2.64386E-15	6.17609E-14
	6770.81535	2.27858E-7	1694.507	7.33557E-4	1476.927	1.04459E-15	0
	6764.38497	2.06301E-7	1535.65463	6.64789E-4	1478.331	9.43969E-16	0
	6757.9668	6.62718E-7	4937.79925	0.00214	1479.735	3.02664E-15	7.26743E-14
	6751.56079	8.30442E-7	6193.35158	0.00268	1481.139	3.78545E-15	5.59468E-14
	6745.16692	2.85984E-7	2134.86107	9.24187E-4	1482.543	1.30115E-15	2.51095E-14
	6738.7806	-5.6944E-8	-425.48777	-1.84195E-4	1483.948	-2.58589E-16	-8.96821E-15
	6732.40637	-2.0804E-8	-155.59548	-6.73577E-5	1485.353	-9.42947E-17	-2.54615E-15
	6726.04418	-4.6977E-8	-351.67859	-1.52243E-4	1486.758	-2.12522E-16	-5.03993E-15
	6719.69401	3.60524E-7	2701.50422	0.00117	1488.163	1.62792E-15	8.3145E-14
	6713.35582	9.90233E-7	7427.0833	0.00322	1489.568	4.46289E-15	0
	6707.02507	1.19815E-6	8995.04806	0.00389	1490.974	5.3898E-15	0
	6700.70625	9.87385E-7	7419.70845	0.00321	1492.38	4.43331E-15	0
	6694.39933	4.80749E-7	3615.99454	0.00157	1493.786	2.15448E-15	6.107E-14
	6688.10427	1.84839E-7	1391.58924	6.02423E-4	1495.192	8.26798E-16	1.46689E-14
	6681.82104	4.3905E-7	3308.5692	0.00143	1496.598	1.96022E-15	3.43259E-14
	6675.54514	6.54188E-7	4934.42579	0.00214	1498.005	2.91525E-15	7.30441E-14
	6669.28102	6.71883E-7	5072.65503	0.0022	1499.412	2.98849E-15	0
	6663.02865	8.21835E-7	6210.6006	0.00269	1500.819	3.64861E-15	0
	6656.78799	8.52499E-7	6448.37028	0.00279	1502.226	3.77766E-15	0
	6650.55901	5.37278E-7	4067.82143	0.00176	1503.633	2.37638E-15	0
	6644.33726	1.1897E-7	901.58445	3.90298E-4	1505.041	5.25219E-16	0
	6638.12715	4.95202E-7	3756.27359	0.00163	1506.449	2.18209E-15	0
	6631.92862	1.50278E-6	11409.77637	0.00494	1507.857	6.60961E-15	3.06413E-13
	6625.74167	1.55974E-6	11853.26958	0.00513	1509.265	6.84732E-15	1.65565E-13
	6619.56625	1.11882E-6	8510.44903	0.00368	1510.673	4.90253E-15	8.53621E-14
	6613.39795	1.01685E-6	7741.96319	0.00335	1512.082	4.44738E-15	7.9961E-14
	6607.24114	9.97754E-7	7603.68078	0.00329	1513.491	4.35576E-15	9.69814E-14
	6601.09578	8.89222E-7	6782.89577	0.00294	1514.9	3.87474E-15	8.04934E-14
	6594.96184	2.84598E-7	2172.90541	9.40656E-4	1516.309	1.23782E-15	1.88241E-14
	6588.83496	2.23718E-7	1709.67569	7.40123E-4	1517.719	9.71223E-16	1.27976E-14
	6582.72377	6.8729E-7	5257.20883	0.00228	1519.128	2.97818E-15	5.70116E-14
	6576.61959	6.12737E-7	4691.29129	0.00203	1520.538	2.65021E-15	1.69229E-13
	6570.52672	5.55014E-7	4253.28627	0.00184	1521.948	2.3961E-15	0
	6564.44082	6.20739E-7	4761.37195	0.00206	1523.359	2.67488E-15	1.36145E-13
	6558.37048	7.12328E-7	5468.95741	0.00237	1524.769	3.06388E-15	5.1391E-14
	6552.30707	1.03144E-6	7926.29145	0.00343	1526.18	4.42825E-15	6.77659E-14
	6546.25485	1.28727E-6	9901.43635	0.00429	1527.591	5.51641E-15	5.25293E-13
	6540.21381	1.10322E-6	8493.60983	0.00368	1529.002	4.71897E-15	0
	6534.18391	6.30242E-7	4856.65091	0.0021	1530.413	2.69085E-15	1.62194E-12
	6528.16085	2.8592E-7	2205.33095	9.54694E-4	1531.825	1.2185E-15	3.77299E-14
	6522.15315	4.351E-7	3359.0677	0.00145	1533.236	1.85085E-15	4.60133E-14
	6516.15224	7.15766E-7	5530.95794	0.00239	1534.648	3.03916E-15	5.61959E-14
	6510.16236	5.55741E-7	4298.34542	0.00186	1536.06	2.35535E-15	6.00648E-14
	6504.17926	3.82754E-7	2963.11475	0.00128	1537.473	1.61922E-15	1.62476E-13
	6498.21137	2.27152E-7	1760.12257	7.61962E-4	1538.885	9.59188E-16	4.31354E-14
	6492.2502	-1.54015E-8	-119.45066	-5.17105E-5	1540.298	-6.49163E-17	-2.27611E-15
	6486.29996	2.35418E-7	1827.52609	7.91141E-4	1541.711	9.90453E-16	3.14445E-14
	6480.36062	7.20735E-7	5600.11519	0.00242	1543.124	3.02673E-15	1.07144E-13
	6474.42795	1.08873E-6	8467.19099	0.00367	1544.538	4.56376E-15	0
	6468.51032	1.09836E-6	8549.93927	0.0037	1545.951	4.59574E-15	0
	6462.59932	5.52628E-7	4305.72981	0.00186	1547.365	2.30806E-15	0
	6456.69912	3.42477E-7	2670.80123	0.00116	1548.779	1.42775E-15	6.15852E-14
	6450.80967	4.38562E-7	3423.23991	0.00148	1550.193	1.82498E-15	5.03315E-14
	6444.92681	5.79854E-7	4530.24531	0.00196	1551.608	2.40855E-15	6.43207E-14
	6439.05882	9.82877E-7	7685.95254	0.00333	1553.022	4.07515E-15	6.17315E-14
	6433.19736	9.99194E-7	7820.66558	0.00339	1554.437	4.13527E-15	5.80384E-14
	6427.34656	6.81644E-7	5340.06379	0.00231	1555.852	2.81592E-15	1.39234E-13
	6421.5064	6.33356E-7	4966.28721	0.00215	1557.267	2.61169E-15	0
	6415.67683	7.17802E-7	5633.55744	0.00244	1558.682	2.95454E-15	1.11082E-13
	6409.85374	9.72875E-7	7642.399	0.00331	1560.098	3.99718E-15	1.37031E-13
	6404.04121	1.72752E-6	13582.80963	0.00588	1561.514	7.08486E-15	0
	6398.2392	2.09672E-6	16500.60332	0.00714	1562.93	8.58342E-15	0
	6392.44771	1.63264E-6	12860.06035	0.00557	1564.346	6.6715E-15	1.47551E-12
	6386.6626	1.19316E-6	9406.898	0.00407	1565.763	4.86685E-15	2.12283E-13
	6380.89204	9.02029E-7	7118.03181	0.00308	1567.179	3.67268E-15	9.10151E-14
	6375.12782	6.55495E-7	5177.27814	0.00224	1568.596	2.66408E-15	7.02691E-14
	6369.37401	8.52094E-7	6736.14416	0.00292	1570.013	3.45685E-15	0
	6363.62653	1.19324E-6	9441.57263	0.00409	1571.431	4.83212E-15	0
	6357.89345	1.01192E-6	8014.0787	0.00347	1572.848	4.09046E-15	8.44581E-14
	6352.16666	8.65649E-7	6861.83832	0.00297	1574.266	3.49289E-15	5.99022E-14
	6346.4542	1.07293E-6	8512.5705	0.00369	1575.683	4.32149E-15	3.43127E-13
	6340.74397	1.07862E-6	8565.45186	0.00371	1577.102	4.33661E-15	2.16402E-12
	6335.04802	7.85279E-7	6241.58784	0.0027	1578.52	3.15155E-15	8.67313E-14
	6329.36229	4.42257E-7	3518.32079	0.00152	1579.938	1.77172E-15	3.07986E-14
