LASERINDEX	WAVENUMBER	SPWNPOWER	SpWNQuant	SpQuantNorm	Wavelength	SpecWL	FluAbsRatio
Integer Laser Wavelength	cm^-1	nW/cm-1	photon/s/cm^-1	Norm intensity	nm	W/nm	Experimental Ratio
671	11340.38471	1.29244E-5	57385.68211	0.02484	881.8043	1.66213E-13	3.05287E-12
	11323.51253	1.30561E-5	58056.82499	0.02513	883.1182	1.67408E-13	3.09198E-12
	11306.68664	1.36814E-5	60928.06849	0.02638	884.4324	1.74905E-13	3.2469E-12
	11289.90941	1.38176E-5	61625.68974	0.02668	885.7467	1.76122E-13	3.26842E-12
	11273.17808	1.30569E-5	58319.39293	0.02525	887.0613	1.65932E-13	3.08908E-12
	11256.495	1.21509E-5	54353.28342	0.02353	888.376	1.53962E-13	2.8977E-12
	11239.85743	1.1236E-5	50335.1853	0.02179	889.691	1.41949E-13	2.70784E-12
	11223.26646	1.03873E-5	46602.13746	0.02017	891.0062	1.30841E-13	2.51461E-12
	11206.72314	9.97813E-6	44832.32692	0.01941	892.3215	1.25316E-13	2.41196E-12
	11190.22476	9.63333E-6	43346.94466	0.01877	893.6371	1.2063E-13	2.32491E-12
	11173.77239	9.08674E-6	40947.65595	0.01773	894.9529	1.13451E-13	2.18298E-12
	11157.36583	8.60231E-6	38821.67706	0.01681	896.2689	1.07087E-13	2.05055E-12
	11141.00614	8.31746E-6	37591.29575	0.01627	897.585	1.03238E-13	1.96873E-12
	11124.69065	8.0925E-6	36628.17872	0.01586	898.9014	1.00152E-13	1.90759E-12
	11108.4204	7.83811E-6	35528.75727	0.01538	900.218	9.672E-14	1.85117E-12
	11092.19399	7.89155E-6	35823.29928	0.01551	901.5349	9.70951E-14	1.87352E-12
	11076.01491	8.12363E-6	36930.67643	0.01599	902.8518	9.96591E-14	1.9326E-12
	11059.87807	8.24055E-6	37516.85142	0.01624	904.1691	1.00799E-13	1.95289E-12
	11043.78696	8.45052E-6	38528.84843	0.01668	905.4865	1.03067E-13	1.99803E-12
	11027.74017	8.96784E-6	40947.00596	0.01773	906.8041	1.09059E-13	2.11659E-12
	11011.73752	9.59908E-6	43892.92265	0.019	908.1219	1.16397E-13	2.24222E-12
	10995.77883	1.0299E-5	47161.60943	0.02042	909.4399	1.24522E-13	2.38132E-12
	10979.86271	1.14354E-5	52441.37678	0.0227	910.7582	1.37862E-13	2.62776E-12
	10963.9914	1.27143E-5	58390.899	0.02528	912.0766	1.52838E-13	2.89364E-12
	10948.16231	1.39223E-5	64031.12963	0.02772	913.3953	1.66876E-13	3.14755E-12
	10932.37767	1.55878E-5	71794.25631	0.03108	914.7141	1.863E-13	3.52278E-12
	10916.6349	1.78584E-5	82371.05578	0.03566	916.0332	2.12824E-13	4.00446E-12
	10900.93503	2.01236E-5	92953.02001	0.04024	917.3525	2.3913E-13	4.44029E-12
	10885.27906	2.19937E-5	101737.0495	0.04404	918.6719	2.60602E-13	4.77398E-12
	10869.66446	2.33282E-5	108065.37675	0.04678	919.9916	2.75622E-13	4.98918E-12
	10854.09224	2.41148E-5	111869.30999	0.04843	921.3115	2.841E-13	5.12588E-12
	10838.56339	2.46876E-5	114690.43444	0.04965	922.6315	2.90016E-13	5.26225E-12
	10823.0754	2.51011E-5	116778.47503	0.05055	923.9518	2.94032E-13	5.36773E-12
	10807.62928	2.55473E-5	119024.40201	0.05153	925.2723	2.98405E-13	5.46294E-12
	10792.22485	2.59346E-5	121000.88136	0.05238	926.593	3.02065E-13	5.53108E-12
	10776.86195	2.58452E-5	120756.03704	0.05228	927.9139	3.00168E-13	5.48438E-12
	10761.54041	2.5707E-5	120281.11029	0.05207	929.235	2.97715E-13	5.41127E-12
	10746.26006	2.6002E-5	121834.68964	0.05274	930.5563	3.00277E-13	5.43784E-12
	10731.01959	2.67504E-5	125519.18881	0.05434	931.8779	3.08044E-13	5.593E-12
	10715.82114	2.80965E-5	132022.22996	0.05715	933.1996	3.22628E-13	5.87718E-12
	10700.66339	3.00042E-5	141186.0509	0.06112	934.5215	3.4356E-13	6.22822E-12
	10685.54617	3.22596E-5	152013.72949	0.06581	935.8436	3.68343E-13	6.60743E-12
	10670.4682	3.50835E-5	165554.37875	0.07167	937.166	3.99457E-13	7.08007E-12
	10655.43158	3.903E-5	184437.25702	0.07984	938.4885	4.4314E-13	7.76875E-12
	10640.43388	4.41915E-5	209122.12446	0.09053	939.8113	5.00331E-13	8.70618E-12
	10625.47722	5.06568E-5	240054.39258	0.10392	941.1342	5.71919E-13	9.87025E-12
	10610.55916	5.86526E-5	278336.22203	0.12049	942.4574	6.60334E-13	1.1253E-11
	10595.68069	6.77511E-5	321964.65226	0.13938	943.7808	7.60631E-13	1.27551E-11
	10580.84277	7.84653E-5	373403.45058	0.16165	945.1043	8.78453E-13	1.44681E-11
	10566.043	9.28825E-5	442631.69096	0.19162	946.4281	1.03695E-12	1.67588E-11
	10551.28234	1.11687E-4	532989.75918	0.23073	947.7521	1.24341E-12	1.96932E-11
	10536.56176	1.35137E-4	645797.36943	0.27957	949.0762	1.50028E-12	2.3217E-11
	10521.87888	1.63999E-4	784815.34739	0.33975	950.4006	1.81563E-12	2.74762E-11
	10507.23465	1.96307E-4	940737.59807	0.40725	951.7252	2.16727E-12	3.22556E-11
	10492.62893	2.31139E-4	1.1092E6	0.48017	953.05	2.54473E-12	3.72163E-11
	10478.06046	2.72225E-4	1.30818E6	0.56631	954.3751	2.98875E-12	4.2502E-11
	10463.5313	3.18767E-4	1.53396E6	0.66406	955.7003	3.49003E-12	4.80258E-11
	10449.04128	3.65694E-4	1.76223E6	0.76287	957.0256	3.99274E-12	5.33647E-11
	10434.58698	4.09875E-4	1.97787E6	0.85622	958.3513	4.46275E-12	5.79402E-11
	10420.17153	4.441E-4	2.14599E6	0.929	959.6771	4.82204E-12	6.07667E-11
	10405.7937	4.635E-4	2.24283E6	0.97093	961.0031	5.01881E-12	6.15458E-11
	10391.45332	4.73527E-4	2.29451E6	0.9933	962.3293	5.11325E-12	6.11479E-11
	10377.14919	4.76066E-4	2.30999E6	1	963.6558	5.12653E-12	5.98178E-11
	10362.8833	4.67634E-4	2.2722E6	0.98364	964.9824	5.02189E-12	5.71886E-11
	10348.65338	4.49203E-4	2.18565E6	0.94617	966.3093	4.81073E-12	5.34873E-11
	10334.46034	4.21738E-4	2.05483E6	0.88954	967.6364	4.50421E-12	4.88994E-11
	10320.30512	3.90754E-4	1.90648E6	0.82532	968.9636	4.16187E-12	4.4105E-11
	10306.18543	3.65935E-4	1.78783E6	0.77396	970.2911	3.88687E-12	4.0061E-11
	10292.10327	3.47409E-4	1.69964E6	0.73578	971.6187	3.68001E-12	3.67379E-11
	10278.05637	3.33156E-4	1.63214E6	0.70656	972.9466	3.51941E-12	3.39178E-11
	10264.04565	3.24444E-4	1.59163E6	0.68902	974.2747	3.41804E-12	3.17895E-11
	10250.07098	3.16518E-4	1.55487E6	0.67311	975.603	3.32547E-12	2.99528E-11
	10236.13222	3.07711E-4	1.51366E6	0.65527	976.9315	3.22415E-12	2.82018E-11
	10222.23026	3.03827E-4	1.49658E6	0.64787	978.2601	3.17481E-12	2.71872E-11
	10208.36185	3.0289E-4	1.49399E6	0.64675	979.5891	3.15643E-12	2.67032E-11
	10194.52998	3.00384E-4	1.48364E6	0.64227	980.9182	3.12184E-12	2.61527E-11
	10180.73347	2.96472E-4	1.46631E6	0.63477	982.2475	3.07286E-12	2.5612E-11
	10166.97218	2.87788E-4	1.42529E6	0.61701	983.577	2.97479E-12	2.48597E-11
	10153.24599	2.74119E-4	1.35942E6	0.5885	984.9067	2.82585E-12	2.37686E-11
	10139.55475	2.61282E-4	1.29751E6	0.5617	986.2366	2.68625E-12	2.28224E-11
	10125.89731	2.50231E-4	1.24431E6	0.53867	987.5668	2.56571E-12	2.213E-11
	10112.27558	2.38673E-4	1.18844E6	0.51448	988.8971	2.44063E-12	2.14612E-11
	10098.68842	2.26607E-4	1.12987E6	0.48912	990.2276	2.31102E-12	2.07303E-11
	10085.13569	2.13176E-4	1.06433E6	0.46075	991.5583	2.16821E-12	1.98272E-11
	10071.61624	1.99098E-4	995380.04609	0.4309	992.8893	2.0196E-12	1.88234E-11
	10058.13097	1.87766E-4	939985.32664	0.40692	994.2205	1.89956E-12	1.79583E-11
	10044.68075	1.78676E-4	895676.23757	0.38774	995.5518	1.80276E-12	1.72322E-11
	10031.26344	1.70698E-4	856827.7847	0.37092	996.8834	1.71767E-12	1.66951E-11
	10017.88092	1.64031E-4	824461.16732	0.35691	998.2151	1.64618E-12	1.63343E-11
	10004.53105	1.56199E-4	786142.67125	0.34032	999.5471	1.5634E-12	1.57915E-11
	9991.21772	1.47422E-4	742957.60578	0.32163	1000.879	1.47163E-12	1.51721E-11
	9977.92882	1.40982E-4	711449.38597	0.30799	1002.212	1.4036E-12	1.4797E-11
	9964.68516	1.36306E-4	688768.92676	0.29817	1003.544	1.35345E-12	1.45102E-11
	9951.4667	1.31927E-4	667526.95549	0.28897	1004.877	1.3065E-12	1.42589E-11
	9938.28326	1.28075E-4	648895.75507	0.28091	1006.21	1.26499E-12	1.41281E-11
	9925.13471	1.23471E-4	626395.87999	0.27117	1007.543	1.21629E-12	1.39263E-11
	9912.01108	1.18159E-4	600239.30377	0.25985	1008.877	1.16088E-12	1.35973E-11
	9898.93191	1.14795E-4	583922.83097	0.25278	1010.21	1.12486E-12	1.34514E-11
	9885.87743	1.13435E-4	577766.86999	0.25012	1011.544	1.10861E-12	1.35079E-11
	9872.85734	1.12601E-4	574275.61515	0.24861	1012.878	1.09756E-12	1.35951E-11
	9859.87151	1.12437E-4	574193.90479	0.24857	1014.212	1.09308E-12	1.37732E-11
	9846.91009	1.12022E-4	572827.90184	0.24798	1015.547	1.08618E-12	1.38548E-11
	9833.99237	1.10994E-4	568314.60904	0.24602	1016.881	1.07339E-12	1.3825E-11
	9821.09886	1.12306E-4	575786.88703	0.24926	1018.216	1.08323E-12	1.41454E-11
	9808.23912	1.16607E-4	598624.36282	0.25915	1019.551	1.12178E-12	1.48121E-11
	9795.40341	1.22362E-4	628992.32576	0.27229	1020.887	1.17406E-12	1.56245E-11
	9782.61082	1.29259E-4	665314.73191	0.28802	1022.222	1.237E-12	1.65605E-11
	9769.84206	1.35971E-4	700777.75052	0.30337	1023.558	1.29784E-12	1.73688E-11
	9757.10659	1.42357E-4	734647.88876	0.31803	1024.894	1.35526E-12	1.81133E-11
	9744.40428	1.51008E-4	780308.25487	0.3378	1026.23	1.43388E-12	1.92556E-11
	9731.73499	1.61752E-4	836913.30028	0.3623	1027.566	1.5319E-12	2.06698E-11
	9719.09861	1.7201E-4	891145.23375	0.38578	1028.902	1.62482E-12	2.19624E-11
	9706.48558	1.80648E-4	937113.90072	0.40568	1030.239	1.70199E-12	2.31524E-11
	9693.90525	1.85741E-4	964783.53438	0.41766	1031.576	1.74544E-12	2.4019E-11
	9681.35748	1.86467E-4	969810.45619	0.41983	1032.913	1.74773E-12	2.44129E-11
	9668.84216	1.86266E-4	970020.73093	0.41992	1034.25	1.74134E-12	2.47416E-11
	9656.34982	1.85925E-4	969495.34643	0.4197	1035.588	1.73366E-12	2.49844E-11
	9643.88973	1.83022E-4	955588.19279	0.41368	1036.926	1.70218E-12	2.48456E-11
	9631.46175	1.78E-4	930569.01116	0.40285	1038.264	1.65122E-12	2.44449E-11
	9619.06576	1.7073E-4	893712.64139	0.38689	1039.602	1.5797E-12	2.37926E-11
	9606.70164	1.61873E-4	848437.54748	0.36729	1040.94	1.4939E-12	2.29736E-11
	9594.36005	1.54479E-4	810726.90652	0.35097	1042.279	1.42201E-12	2.22333E-11
	9582.05932	1.48535E-4	780530.76713	0.33789	1043.617	1.36378E-12	2.16102E-11
	9569.78093	1.43392E-4	754470.76476	0.32661	1044.956	1.31319E-12	2.11383E-11
	9557.53397	1.39224E-4	733479.51497	0.31753	1046.295	1.27176E-12	2.07453E-11
	9545.3092	1.33926E-4	706473.11552	0.30583	1047.635	1.22024E-12	2.01521E-11
	9533.12475	1.27493E-4	673397.94204	0.29152	1048.974	1.15866E-12	1.93906E-11
	9520.9623	1.2306E-4	650812.35556	0.28174	1050.314	1.11552E-12	1.8988E-11
	9508.83085	1.20476E-4	637961.06415	0.27618	1051.654	1.08932E-12	1.90182E-11
	9496.73028	1.18029E-4	625801.3586	0.27091	1052.994	1.06448E-12	1.89778E-11
	9484.65146	1.15773E-4	614620.24471	0.26607	1054.335	1.04148E-12	1.86894E-11
	9472.61231	1.1234E-4	597151.34469	0.25851	1055.675	1.00803E-12	1.81943E-11
	9460.59473	1.07681E-4	573112.89698	0.2481	1057.016	9.63773E-13	1.75989E-11
	9448.60761	1.04693E-4	557919.70495	0.24152	1058.357	9.34662E-13	1.72217E-11
	9436.65082	1.03049E-4	549854.22688	0.23803	1059.698	9.17657E-13	1.70859E-11
	9424.71537	1.01407E-4	541777.07581	0.23454	1061.04	9.00751E-13	1.70557E-11
	9412.81894	1.00336E-4	536731.31792	0.23235	1062.381	8.88987E-13	1.71258E-11
	9400.94367	9.84842E-5	527492.19164	0.22835	1063.723	8.70381E-13	1.70018E-11
	9389.09832	9.52777E-5	510961.19146	0.2212	1065.065	8.39922E-13	1.65623E-11
	9377.28278	9.2996E-5	499353.5014	0.21617	1066.407	8.17746E-13	1.61826E-11
	9365.48818	9.20477E-5	494883.93857	0.21424	1067.75	8.07372E-13	1.60356E-11
	9353.73195	9.10445E-5	490105.36838	0.21217	1069.092	7.96569E-13	1.60837E-11
	9341.99648	8.96777E-5	483354.14667	0.20925	1070.435	7.82643E-13	1.61419E-11
	9330.29041	8.75766E-5	472621.6874	0.2046	1071.778	7.62392E-13	1.57705E-11
	9318.61365	8.49091E-5	458800.50031	0.19862	1073.121	7.37322E-13	1.51193E-11
	9306.95742	8.29313E-5	448674.35414	0.19423	1074.465	7.18346E-13	1.47591E-11
	9295.3303	8.17263E-5	442708.52368	0.19165	1075.809	7.06141E-13	1.46937E-11
	9283.74083	8.07744E-5	438098.04693	0.18965	1077.152	6.96177E-13	1.46884E-11
	9272.17162	7.97898E-5	433298.19987	0.18758	1078.496	6.85979E-13	1.46972E-11
	9260.62263	7.79254E-5	423700.94868	0.18342	1079.841	6.68281E-13	1.45797E-11
	9249.11093	7.53281E-5	410088.83737	0.17753	1081.185	6.44402E-13	1.41299E-11
	9237.61928	7.33329E-5	399723.29226	0.17304	1082.53	6.25776E-13	1.36524E-11
	9226.15615	7.2037E-5	393147.7997	0.17019	1083.875	6.13193E-13	1.3599E-11
	9214.72144	7.11296E-5	388676.94693	0.16826	1085.22	6.03969E-13	1.36615E-11
	9203.31503	7.038E-5	385057.87878	0.16669	1086.565	5.96126E-13	1.34775E-11
	9191.92838	6.87859E-5	376802.36445	0.16312	1087.911	5.81183E-13	1.32533E-11
	9180.5783	6.67855E-5	366296.41908	0.15857	1089.256	5.62888E-13	1.30299E-11
	9169.24781	6.56784E-5	360669.84554	0.15613	1090.602	5.52192E-13	1.27986E-11
	9157.94525	6.48405E-5	356507.85062	0.15433	1091.948	5.43804E-13	1.25631E-11
	9146.66215	6.37205E-5	350781.97926	0.15185	1093.295	5.33095E-13	1.22696E-11
	9135.41517	6.28522E-5	346428.18889	0.14997	1094.641	5.24538E-13	1.20836E-11
	9124.18749	6.16694E-5	340326.91639	0.14733	1095.988	5.13403E-13	1.18814E-11
	9112.98737	6.0006E-5	331554.29069	0.14353	1097.335	4.98329E-13	1.14915E-11
	9101.81472	5.9158E-5	327270.03222	0.14168	1098.682	4.90083E-13	1.12329E-11
	9090.66943	5.91546E-5	327652.58745	0.14184	1100.029	4.88855E-13	1.11365E-11
	9079.54315	5.93399E-5	329081.60619	0.14246	1101.377	4.89187E-13	1.09346E-11
	9068.44408	5.95663E-5	330741.25419	0.14318	1102.725	4.89853E-13	1.06842E-11
	9057.37211	5.93263E-5	329811.49077	0.14278	1104.073	4.86689E-13	1.05131E-11
	9046.32715	5.88963E-5	327821.01607	0.14191	1105.421	4.81984E-13	1.04233E-11
	9035.30908	5.95778E-5	332018.51524	0.14373	1106.769	4.86374E-13	1.05144E-11
	9024.30969	6.12061E-5	341508.47714	0.14784	1108.118	4.98451E-13	1.07431E-11
	9013.33703	6.28277E-5	350983.41648	0.15194	1109.467	5.10414E-13	1.09271E-11
	9002.39104	6.44799E-5	360650.86912	0.15613	1110.816	5.22564E-13	1.11116E-11
	8991.47159	6.57057E-5	367953.54811	0.15929	1112.165	5.31208E-13	1.1194E-11
	8980.5786	6.65393E-5	373073.55102	0.1615	1113.514	5.36644E-13	1.11259E-11
	8969.70393	6.80643E-5	382087.06578	0.16541	1114.864	5.47616E-13	1.11512E-11
	8958.85556	7.00934E-5	393954.03001	0.17054	1116.214	5.62578E-13	1.1214E-11
	8948.0334	7.22138E-5	406362.19404	0.17592	1117.564	5.78196E-13	1.1312E-11
	8937.23736	7.42709E-5	418443.02686	0.18115	1118.914	5.93233E-13	1.15212E-11
	8926.46733	7.5484E-5	425790.63941	0.18433	1120.264	6.0147E-13	1.15773E-11
	8915.71529	7.60958E-5	429759.45505	0.18604	1121.615	6.04886E-13	1.15343E-11
	8904.98911	7.71421E-5	436193.18803	0.18883	1122.966	6.11728E-13	1.16675E-11
	8894.28871	7.85104E-5	444464.12155	0.19241	1124.317	6.21083E-13	1.1855E-11
	8883.614	7.95903E-5	451118.88987	0.19529	1125.668	6.28115E-13	1.19051E-11
	8872.957	8.03592E-5	456024.38991	0.19741	1127.02	6.32663E-13	1.17884E-11
	8862.3334	8.02052E-5	455696.13238	0.19727	1128.371	6.29939E-13	1.15356E-11
	8851.72737	7.89591E-5	449153.46972	0.19444	1129.723	6.18669E-13	1.12652E-11
	8841.1467	7.81431E-5	445043.99469	0.19266	1131.075	6.10813E-13	1.11827E-11
	8830.59129	7.81581E-5	445661.55816	0.19293	1132.427	6.09472E-13	1.12053E-11
	8820.05327	7.80517E-5	445586.64914	0.1929	1133.78	6.07191E-13	1.11423E-11
	8809.54038	7.76272E-5	443691.91427	0.19208	1135.133	6.02449E-13	1.10893E-11
	8799.06026	7.63193E-5	436736.05771	0.18906	1136.485	5.90891E-13	1.09123E-11
	8788.5896	7.39931E-5	423928.54734	0.18352	1137.839	5.71517E-13	1.05116E-11
	8778.15153	7.21316E-5	413754.98159	0.17912	1139.192	5.55817E-13	1.01564E-11
	8767.73823	7.10359E-5	407953.97255	0.1766	1140.545	5.46076E-13	9.97009E-12
	8757.34194	6.97798E-5	401216.1356	0.17369	1141.899	5.35149E-13	9.81061E-12
	8746.97027	6.80638E-5	391813.66262	0.16962	1143.253	5.20753E-13	9.50154E-12
	8736.62314	6.58582E-5	379565.71939	0.16431	1144.607	5.02686E-13	9.10354E-12
	8726.30046	6.34248E-5	365973.74	0.15843	1145.961	4.82969E-13	8.77457E-12
	8715.99455	6.14601E-5	355056.42445	0.1537	1147.316	4.66904E-13	8.5021E-12
	8705.71295	5.98142E-5	345956.05299	0.14977	1148.671	4.53329E-13	8.26118E-12
	8695.45558	5.82731E-5	337439.9966	0.14608	1150.026	4.40608E-13	8.11363E-12
	8685.22235	5.71511E-5	331332.92311	0.14343	1151.381	4.31109E-13	8.02745E-12
	8675.01319	5.56353E-5	322924.5363	0.13979	1152.736	4.18688E-13	7.88759E-12
	8664.82048	5.34506E-5	310608.86617	0.13446	1154.092	4.01302E-13	7.64333E-12
	8654.65919	5.17009E-5	300794.07153	0.13021	1155.447	3.87256E-13	7.36546E-12
	8644.51423	5.03332E-5	293180.37014	0.12692	1156.803	3.76128E-13	7.12999E-12
	8634.39303	4.90243E-5	285891.16574	0.12376	1158.159	3.6549E-13	6.97143E-12
	8624.28807	4.80998E-5	280828.09353	0.12157	1159.516	3.57758E-13	6.91316E-12
	8614.21414	4.68349E-5	273762.8298	0.11851	1160.872	3.47537E-13	6.74552E-12
	8604.15632	4.48795E-5	262639.99996	0.1137	1162.229	3.3225E-13	6.41628E-12
	8594.12196	4.36224E-5	255581.08987	0.11064	1163.586	3.2219E-13	6.27244E-12
	8584.11098	4.33239E-5	254128.43136	0.11001	1164.943	3.19241E-13	6.35017E-12
	8574.11594	4.29312E-5	252118.14824	0.10914	1166.301	3.1561E-13	6.3943E-12
	8564.15149	4.21926E-5	248069.15998	0.10739	1167.658	3.0946E-13	6.33096E-12
	8554.20285	4.10805E-5	241811.68054	0.10468	1169.016	3.00604E-13	6.2004E-12
	8544.2773	3.97883E-5	234477.02503	0.10151	1170.374	2.90473E-13	6.0491E-12
	8534.37475	3.88887E-5	229441.94538	0.09933	1171.732	2.83248E-13	5.95449E-12
	8524.48787	3.83935E-5	226782.82582	0.09817	1173.091	2.78994E-13	5.92003E-12
	8514.63112	3.79448E-5	224391.926	0.09714	1174.449	2.75096E-13	5.90984E-12
	8504.7899	3.74248E-5	221572.96949	0.09592	1175.808	2.70699E-13	5.88813E-12
	8494.9714	3.66449E-5	217206.28418	0.09403	1177.167	2.64446E-13	5.77713E-12
	8485.17555	3.56455E-5	211526.71306	0.09157	1178.526	2.56642E-13	5.60757E-12
	8475.39508	3.49369E-5	207560.83356	0.08985	1179.886	2.5096E-13	5.48847E-12
	8465.63713	3.45036E-5	205222.7263	0.08884	1181.246	2.47277E-13	5.41877E-12
	8455.90878	3.42632E-5	204027.5769	0.08832	1182.605	2.4499E-13	5.37125E-12
	8446.18849	3.42486E-5	204175.12912	0.08839	1183.966	2.44323E-13	5.33022E-12
	8436.49764	3.38981E-5	202318.00956	0.08758	1185.326	2.41268E-13	5.27792E-12
	8426.829	3.30797E-5	197659.91601	0.08557	1186.686	2.34904E-13	5.23138E-12
	8417.17541	3.22679E-5	193030.05224	0.08356	1188.047	2.28614E-13	5.12753E-12
	8407.54392	3.15793E-5	189127.33511	0.08187	1189.408	2.23224E-13	4.99925E-12
	8397.93444	3.1296E-5	187645.09563	0.08123	1190.769	2.20716E-13	5.02939E-12
	8388.34691	3.13551E-5	188214.40695	0.08148	1192.13	2.20628E-13	5.12803E-12
	8378.77422	3.07092E-5	184548.03073	0.07989	1193.492	2.15591E-13	5.04445E-12
	8369.23036	2.97206E-5	178810.32939	0.07741	1194.853	2.08175E-13	4.93592E-12
	8359.70122	2.95551E-5	178017.101	0.07706	1196.215	2.06544E-13	4.93677E-12
	8350.19377	2.957E-5	178309.72774	0.07719	1197.577	2.06179E-13	4.93704E-12
	8340.70095	2.90656E-5	175467.9696	0.07596	1198.94	2.02202E-13	4.9559E-12
	8331.23664	2.84821E-5	172140.53112	0.07452	1200.302	1.97693E-13	4.96788E-12
	8321.78685	2.79042E-5	168839.35275	0.07309	1201.665	1.93243E-13	4.89764E-12
	8312.35848	2.70528E-5	163873.22756	0.07094	1203.028	1.86922E-13	4.74424E-12
	8302.95145	2.65938E-5	161275.71104	0.06982	1204.391	1.83335E-13	4.65464E-12
	8293.56569	2.68515E-5	163022.50885	0.07057	1205.754	1.84693E-13	4.69997E-12
	8284.19425	2.68945E-5	163468.56649	0.07077	1207.118	1.84571E-13	4.70147E-12
	8274.84398	2.65706E-5	161682.07049	0.06999	1208.482	1.81937E-13	4.62746E-12
	8265.51478	2.60595E-5	158750.95976	0.06872	1209.846	1.78035E-13	4.57337E-12
	8256.2066	2.53714E-5	154733.53022	0.06698	1211.21	1.72944E-13	4.5201E-12
	8246.91936	2.49849E-5	152547.8866	0.06604	1212.574	1.69926E-13	4.49281E-12
	8237.64621	2.49636E-5	152589.48732	0.06606	1213.939	1.694E-13	4.51869E-12
	8228.39388	2.47421E-5	151405.69963	0.06554	1215.304	1.6752E-13	4.50533E-12
	8219.16232	2.41894E-5	148189.81406	0.06415	1216.669	1.63411E-13	4.43585E-12
	8209.95145	2.35863E-5	144657.26691	0.06262	1218.034	1.5898E-13	4.32231E-12
	8200.76119	2.29624E-5	140988.48344	0.06103	1219.399	1.54428E-13	4.16841E-12
	8191.58478	2.25745E-5	138761.91541	0.06007	1220.765	1.51479E-13	4.07574E-12
	8182.43558	2.24787E-5	138327.85289	0.05988	1222.13	1.505E-13	4.0699E-12
	8173.30012	2.24166E-5	138099.62144	0.05978	1223.496	1.49749E-13	4.11535E-12
	8164.17836	2.22817E-5	137421.90885	0.05949	1224.863	1.48516E-13	4.11107E-12
	8155.08359	2.17367E-5	134210.07245	0.0581	1226.229	1.4456E-13	3.97278E-12
	8146.00243	2.09462E-5	129473.85882	0.05605	1227.596	1.38994E-13	3.81804E-12
	8136.94147	2.04679E-5	126658.21585	0.05483	1228.963	1.35518E-13	3.73625E-12
	8127.90064	2.02218E-5	125274.35528	0.05423	1230.33	1.33591E-13	3.72521E-12
	8118.87989	2.01241E-5	124807.44773	0.05403	1231.697	1.3265E-13	3.72981E-12
	8109.87913	2.01066E-5	124837.19195	0.05404	1233.064	1.32241E-13	3.73072E-12
	8100.89175	1.96838E-5	122348.10264	0.05296	1234.432	1.29174E-13	3.70108E-12
	8091.92426	1.88228E-5	117125.82416	0.0507	1235.8	1.2325E-13	3.55111E-12
	8082.9766	1.83882E-5	114548.48664	0.04959	1237.168	1.20139E-13	3.45286E-12
	8074.04872	1.85027E-5	115388.73291	0.04995	1238.536	1.20619E-13	3.51244E-12
	8065.13402	1.84038E-5	114899.03084	0.04974	1239.905	1.1971E-13	3.52716E-12
	8056.24548	1.80922E-5	113078.60108	0.04895	1241.273	1.17424E-13	3.43405E-12
	8047.37004	1.78302E-5	111563.89994	0.0483	1242.642	1.15469E-13	3.3191E-12
	8038.51413	1.76681E-5	110671.27766	0.04791	1244.011	1.14167E-13	3.21791E-12
	8029.67769	1.77522E-5	111320.4439	0.04819	1245.38	1.14459E-13	3.18929E-12
	8020.85422	1.78361E-5	111969.27598	0.04847	1246.75	1.14747E-13	3.20667E-12
	8012.05012	1.77081E-5	111288.46926	0.04818	1248.12	1.13674E-13	3.18224E-12
	8003.26533	1.76583E-5	111097.29535	0.04809	1249.49	1.13106E-13	3.14828E-12
	7994.49978	1.75326E-5	110427.4421	0.0478	1250.86	1.12055E-13	3.08026E-12
	7985.75342	1.72309E-5	108645.6238	0.04703	1252.23	1.09885E-13	2.99966E-12
	7977.02616	1.71472E-5	108236.50229	0.04686	1253.6	1.09113E-13	2.98576E-12
	7968.31162	1.72627E-5	109084.25284	0.04722	1254.971	1.09607E-13	2.98627E-12
	7959.61609	1.72325E-5	109012.64168	0.04719	1256.342	1.09177E-13	2.985E-12
	7950.93952	1.70684E-5	108092.2586	0.04679	1257.713	1.07902E-13	2.96731E-12
	7942.27554	1.69718E-5	107598.15694	0.04658	1259.085	1.07058E-13	2.90717E-12
	7933.63672	1.711E-5	108592.21882	0.04701	1260.456	1.07695E-13	2.90676E-12
	7925.01038	1.7271E-5	109733.49475	0.0475	1261.828	1.08472E-13	2.96488E-12
	7916.40279	1.71158E-5	108865.71675	0.04713	1263.2	1.07264E-13	2.95744E-12
	7907.81387	1.69417E-5	107875.05452	0.0467	1264.572	1.05942E-13	2.89021E-12
	7899.24357	1.68562E-5	107446.99979	0.04651	1265.944	1.05179E-13	2.8272E-12
	7890.6856	1.67373E-5	106804.81809	0.04624	1267.317	1.04211E-13	2.80505E-12
	7882.14615	1.67054E-5	106716.83328	0.0462	1268.69	1.03788E-13	2.81741E-12
	7873.62517	1.67604E-5	107184.299	0.0464	1270.063	1.03905E-13	2.81584E-12
	7865.12259	1.68007E-5	107558.29221	0.04656	1271.436	1.0393E-13	2.78051E-12
	7856.63835	1.6826E-5	107836.31877	0.04668	1272.809	1.03861E-13	2.791E-12
	7848.16624	1.68021E-5	107799.09134	0.04667	1274.183	1.0349E-13	2.83056E-12
	7839.71238	1.67116E-5	107334.45889	0.04647	1275.557	1.02711E-13	2.80744E-12
	7831.27671	1.65275E-5	106266.27173	0.046	1276.931	1.01361E-13	2.75256E-12
	7822.85918	1.64516E-5	105892.22674	0.04584	1278.305	1.00679E-13	2.75015E-12
	7814.45972	1.68569E-5	108617.25066	0.04702	1279.679	1.02938E-13	2.84425E-12
	7806.07219	1.72229E-5	111094.90063	0.04809	1281.054	1.04947E-13	2.84325E-12
	7797.70264	1.70523E-5	110112.46563	0.04767	1282.429	1.03685E-13	2.76253E-12
	7789.35102	1.66365E-5	107543.10385	0.04656	1283.804	1.00941E-13	2.75043E-12
	7781.01727	1.61223E-5	104330.63696	0.04517	1285.179	9.76113E-14	2.68154E-12
	7772.70134	1.58505E-5	102681.47852	0.04445	1286.554	9.57607E-14	2.61084E-12
	7764.39713	1.5916E-5	103215.72899	0.04468	1287.93	9.59507E-14	2.60295E-12
	7756.11065	1.58856E-5	103128.62921	0.04464	1289.306	9.55632E-14	2.5615E-12
	7747.84184	1.58414E-5	102951.4094	0.04457	1290.682	9.50941E-14	2.54421E-12
	7739.59064	1.57475E-5	102450.2768	0.04435	1292.058	9.43292E-14	2.56669E-12
	7731.35101	1.53747E-5	100131.6386	0.04335	1293.435	9.19003E-14	2.52656E-12
	7723.13488	1.49267E-5	97317.29125	0.04213	1294.811	8.90328E-14	2.44084E-12
	7714.93024	1.46099E-5	95353.55197	0.04128	1296.188	8.69585E-14	2.39682E-12
	7706.74301	1.48253E-5	96862.04579	0.04193	1297.565	8.80533E-14	2.41073E-12
	7698.56722	1.55897E-5	101964.15038	0.04414	1298.943	9.23967E-14	2.47584E-12
	7690.41467	1.57108E-5	102865.42032	0.04453	1300.32	9.29176E-14	2.46964E-12
	7682.27346	1.51065E-5	99013.44141	0.04286	1301.698	8.91544E-14	2.34478E-12
	7674.14947	1.47193E-5	96577.6046	0.04181	1303.076	8.66855E-14	2.24545E-12
	7666.04265	1.43226E-5	94074.128	0.04072	1304.454	8.41711E-14	2.18541E-12
	7657.95294	1.40705E-5	92516.11663	0.04005	1305.832	8.25153E-14	2.1759E-12
	7649.87443	1.42172E-5	93579.17053	0.04051	1307.211	8.31996E-14	2.21151E-12
	7641.81878	1.4131E-5	93109.9372	0.04031	1308.589	8.25212E-14	2.15991E-12
	7633.77426	1.36972E-5	90346.80679	0.03911	1309.968	7.98197E-14	2.06314E-12
	7625.74666	1.33829E-5	88366.85189	0.03825	1311.347	7.78244E-14	2.05381E-12
	7617.73011	1.33459E-5	88214.84025	0.03819	1312.727	7.74458E-14	2.09772E-12
	7609.7362	1.33783E-5	88522.10575	0.03832	1314.106	7.74711E-14	2.10119E-12
	7601.75327	1.32961E-5	88070.9857	0.03813	1315.486	7.6834E-14	2.03174E-12
	7593.78707	1.2859E-5	85264.42482	0.03691	1316.866	7.41519E-14	1.90945E-12
	7585.83754	1.21283E-5	80503.73073	0.03485	1318.246	6.9792E-14	1.80791E-12
	7577.90465	1.17484E-5	78063.73076	0.03379	1319.626	6.74646E-14	1.78771E-12
	7569.9826	1.18652E-5	78922.26258	0.03417	1321.007	6.79929E-14	1.80599E-12
	7562.07709	1.19414E-5	79512.42215	0.03442	1322.388	6.82869E-14	1.77785E-12
	7554.18808	1.19082E-5	79374.04433	0.03436	1323.769	6.7955E-14	1.74701E-12
	7546.31551	1.17959E-5	78707.76294	0.03407	1325.15	6.71741E-14	1.73215E-12
	7538.45933	1.13529E-5	75830.83667	0.03283	1326.531	6.45168E-14	1.66571E-12
	7530.61383	1.09613E-5	73291.43569	0.03173	1327.913	6.21618E-14	1.59921E-12
	7522.78463	1.08762E-5	72797.99126	0.03151	1329.295	6.15509E-14	1.58756E-12
	7514.9717	1.0666E-5	71465.00411	0.03094	1330.677	6.02358E-14	1.56658E-12
	7507.17498	1.0297E-5	69064.53528	0.0299	1332.059	5.80315E-14	1.51383E-12
	7499.39442	9.93244E-6	66688.4024	0.02887	1333.441	5.58609E-14	1.44949E-12
	7491.62436	9.53364E-6	64077.16884	0.02774	1334.824	5.3507E-14	1.36824E-12
	7483.87039	9.12646E-6	61404.02589	0.02658	1336.207	5.11158E-14	1.31424E-12
	7476.13245	8.81798E-6	59389.93744	0.02571	1337.59	4.92859E-14	1.2969E-12
	7468.41049	8.68848E-6	58578.28008	0.02536	1338.973	4.84619E-14	1.26137E-12
	7460.70447	8.73665E-6	58963.87535	0.02553	1340.356	4.86301E-14	1.23886E-12
	7453.00878	8.64078E-6	58377.07094	0.02527	1341.74	4.79973E-14	1.20186E-12
	7445.32895	8.21721E-6	55572.65477	0.02406	1343.124	4.55504E-14	1.09916E-12
	7437.66493	7.89186E-6	53427.32341	0.02313	1344.508	4.36569E-14	1.03781E-12
	7430.01667	7.7621E-6	52602.98191	0.02277	1345.892	4.28508E-14	1.04128E-12
	7422.37862	7.59083E-6	51495.24842	0.02229	1347.277	4.18192E-14	1.02186E-12
	7414.76175	7.38003E-6	50116.60481	0.0217	1348.661	4.05744E-14	9.84283E-13
	7407.15502	7.05238E-6	47940.75434	0.02075	1350.046	3.86935E-14	9.44844E-13
	7399.56387	6.52062E-6	44371.42599	0.01921	1351.431	3.57027E-14	8.78324E-13
	7391.9828	6.23981E-6	42504.1058	0.0184	1352.817	3.40952E-14	8.39132E-13
	7384.42271	6.35879E-6	43358.92256	0.01877	1354.202	3.46743E-14	8.42484E-13
	7376.87262	6.2346E-6	42555.62964	0.01842	1355.588	3.39276E-14	7.99538E-13
	7369.33795	5.81662E-6	39743.23806	0.0172	1356.974	3.15884E-14	7.25626E-13
	7361.81866	5.5626E-6	38046.39257	0.01647	1358.36	3.01473E-14	6.84383E-13
	7354.3147	5.54558E-6	37968.68645	0.01644	1359.746	2.99938E-14	6.71964E-13
	7346.82602	5.70841E-6	39123.35354	0.01694	1361.132	3.08116E-14	6.92071E-13
	7339.34719	5.9136E-6	40570.94719	0.01756	1362.519	3.18542E-14	7.2871E-13
	7331.88358	5.74398E-6	39447.40715	0.01708	1363.906	3.08777E-14	7.02088E-13
	7324.43512	5.05443E-6	34747.11972	0.01504	1365.293	2.71157E-14	6.14086E-13
	7316.99643	4.52252E-6	31122.05626	0.01347	1366.681	2.42129E-14	5.71199E-13
	7309.57818	4.48432E-6	30890.53407	0.01337	1368.068	2.39597E-14	5.85072E-13
	7302.16962	4.43183E-6	30559.89083	0.01323	1369.456	2.36313E-14	5.49544E-13
	7294.77606	4.22899E-6	29190.74762	0.01264	1370.844	2.2504E-14	4.71318E-13
	7287.39747	4.27013E-6	29504.56773	0.01277	1372.232	2.2677E-14	4.50765E-13
	7280.03378	4.56988E-6	31607.66959	0.01368	1373.62	2.42199E-14	4.90101E-13
	7272.67967	4.64796E-6	32180.19685	0.01393	1375.009	2.45839E-14	4.92962E-13
	7265.3404	4.46317E-6	30931.99419	0.01339	1376.398	2.35589E-14	4.5708E-13
	7258.01593	4.20525E-6	29173.90254	0.01263	1377.787	2.21527E-14	4.52778E-13
	7250.70622	3.92901E-6	27285.00663	0.01181	1379.176	2.06559E-14	4.89447E-13
	7243.41121	3.45855E-6	24042.06615	0.01041	1380.565	1.8146E-14	4.45371E-13
	7236.12563	2.73308E-6	19018.10736	0.00823	1381.955	1.43108E-14	3.57973E-13
	7228.85992	2.46927E-6	17199.65817	0.00745	1383.344	1.29035E-14	3.98655E-13
	7221.60357	2.62575E-6	18307.9872	0.00793	1384.734	1.36937E-14	4.52679E-13
	7214.35657	2.53842E-6	17716.83696	0.00767	1386.125	1.32117E-14	4.15482E-13
	7207.12929	2.41017E-6	16838.61748	0.00729	1387.515	1.25191E-14	3.97316E-13
	7199.9113	2.18183E-6	15258.60873	0.00661	1388.906	1.13103E-14	3.91061E-13
	7192.70775	1.6494E-6	11546.57185	0.005	1390.297	8.53315E-15	2.89933E-13
	7185.52376	1.39059E-6	9744.54617	0.00422	1391.687	7.17986E-15	2.64337E-13
	7178.3438	1.40328E-6	9843.2751	0.00426	1393.079	7.23089E-15	5.76857E-13
	7171.18332	1.42079E-6	9976.09756	0.00432	1394.47	7.30655E-15	4.52819E-13
	7164.03197	1.44246E-6	10138.32244	0.00439	1395.862	7.40317E-15	1.81859E-13
	7156.89488	1.41101E-6	9927.1961	0.0043	1397.254	7.22736E-15	1.56723E-13
	7149.77199	1.57602E-6	11099.16821	0.0048	1398.646	8.0565E-15	1.89756E-13
	7142.66327	1.6012E-6	11287.70981	0.00489	1400.038	8.16894E-15	1.92205E-13
	7135.56867	1.39316E-6	9830.87046	0.00426	1401.43	7.09344E-15	2.38668E-13
	7128.48307	1.12643E-6	7956.61817	0.00344	1402.823	5.72399E-15	2.66762E-13
	7121.41152	6.36513E-7	4500.51338	0.00195	1404.216	3.22804E-15	1.11229E-13
	7114.35399	4.68683E-7	3317.14349	0.00144	1405.609	2.37219E-15	7.11053E-14
	7107.31044	6.93257E-7	4911.45	0.00213	1407.002	3.50191E-15	1.25185E-13
	7100.27577	7.07623E-7	5018.19291	0.00217	1408.396	3.5674E-15	1.52393E-13
	7093.26006	6.12027E-7	4344.55876	0.00188	1409.789	3.07937E-15	1.26147E-13
	7086.25316	6.56002E-7	4661.32583	0.00202	1411.183	3.29411E-15	1.04364E-13
	7079.2601	5.8165E-7	4137.08341	0.00179	1412.577	2.91499E-15	7.37458E-14
	7072.27583	3.0167E-7	2147.80003	9.29788E-4	1413.972	1.50887E-15	4.03567E-14
	7065.31032	-8.58094E-8	-611.53949	-2.64737E-4	1415.366	-4.28349E-16	-1.54836E-14
	7058.35353	-2.47674E-7	-1766.83901	-7.64869E-4	1416.761	-1.23392E-15	-3.73631E-14
	7051.41042	1.89976E-8	135.65767	5.87266E-5	1418.156	9.44608E-17	1.9811E-15
	7044.48097	2.68931E-7	1922.26121	8.32152E-4	1419.551	1.33456E-15	2.71369E-14
	7037.56512	3.41906E-7	2446.2773	0.00106	1420.946	1.69337E-15	3.06452E-14
	7030.65789	4.22923E-7	3028.90834	0.00131	1422.342	2.09051E-15	3.30937E-14
	7023.7642	6.2303E-7	4466.42543	0.00193	1423.738	3.07361E-15	6.86573E-14
	7016.88895	6.34523E-7	4553.2744	0.00197	1425.133	3.12419E-15	1.30646E-13
	7010.01731	2.41034E-7	1731.32771	7.49496E-4	1426.53	1.18445E-15	6.11386E-14
	7003.16403	-1.93214E-8	-138.92019	-6.01389E-5	1427.926	-9.47605E-17	-2.33881E-15
	6996.31924	9.10405E-8	655.21795	2.83646E-4	1429.323	4.45629E-16	4.59997E-15
	6989.4927	3.27207E-7	2357.20606	0.00102	1430.719	1.5985E-15	1.62086E-14
	6982.67459	6.85172E-7	4940.81607	0.00214	1432.116	3.34075E-15	8.23716E-14
	6975.86977	8.34562E-7	6023.94301	0.00261	1433.513	4.06121E-15	1.63218E-13
	6969.07334	7.79058E-7	5628.79353	0.00244	1434.911	3.78373E-15	7.98711E-14
	6962.295	8.7796E-7	6349.55111	0.00275	1436.308	4.25578E-15	7.84203E-14
	6955.52498	7.97938E-7	5776.43858	0.0025	1437.706	3.86037E-15	1.49172E-13
	6948.76812	6.34315E-7	4596.39967	0.00199	1439.104	3.06281E-15	1.62352E-13
	6942.02438	7.18158E-7	5209.00095	0.00225	1440.502	3.46092E-15	6.16816E-14
	6935.2889	8.32568E-7	6044.71793	0.00262	1441.901	4.00451E-15	5.69563E-14
	6928.57128	8.28649E-7	6022.09243	0.00261	1443.299	3.97794E-15	1.01392E-13
	6921.86187	9.30571E-7	6769.35397	0.00293	1444.698	4.45857E-15	1.46489E-13
	6915.16544	1.18317E-6	8615.23375	0.00373	1446.097	5.65788E-15	1.11783E-13
	6908.48196	1.01764E-6	7417.06961	0.00321	1447.496	4.8569E-15	1.25051E-13
	6901.80662	6.2023E-7	4524.91754	0.00196	1448.896	2.95446E-15	1.01657E-13
	6895.14892	5.74645E-7	4196.40148	0.00182	1450.295	2.73204E-15	5.67347E-14
	6888.49931	2.83987E-7	2075.84567	8.98639E-4	1451.695	1.34756E-15	2.85436E-14
	6881.86251	1.31809E-7	964.40693	4.17494E-4	1453.095	6.24249E-16	1.19238E-14
	6875.23848	6.75661E-7	4948.36371	0.00214	1454.495	3.19377E-15	3.4238E-14
	6868.62248	9.28942E-7	6809.88047	0.00295	1455.896	4.38256E-15	4.75025E-14
	6862.0192	6.76003E-7	4960.40904	0.00215	1457.297	3.18312E-15	7.39649E-14
	6855.42861	2.70115E-7	1983.97247	8.58867E-4	1458.698	1.26946E-15	7.40738E-14
	6848.85066	-9.84829E-8	-724.04244	-3.1344E-4	1460.099	-4.61951E-16	-2.29157E-14
	6842.28532	-1.04382E-7	-768.1454	-3.32532E-4	1461.5	-4.88682E-16	-1.56274E-14
	6835.73256	8.92178E-8	657.18436	2.84497E-4	1462.901	4.1689E-16	1.18664E-14
	6829.18767	1.28942E-7	950.70527	4.11563E-4	1464.303	6.01357E-16	1.87025E-14
	6822.65531	3.21565E-7	2373.20837	0.00103	1465.705	1.49684E-15	6.96499E-14
	6816.13543	6.28285E-7	4641.29472	0.00201	1467.107	2.91899E-15	1.35517E-13
	6809.628	5.08036E-7	3756.57608	0.00163	1468.509	2.35582E-15	5.65852E-14
	6803.12835	1.04168E-7	770.98406	3.33761E-4	1469.912	4.82115E-16	1.09217E-14
	6796.64572	-2.50499E-8	-185.58071	-8.03384E-5	1471.314	-1.15717E-16	-3.78718E-15
	6790.17082	2.62037E-7	1943.13415	8.41188E-4	1472.717	1.20816E-15	3.52423E-14
	6783.70825	6.91089E-7	5129.6484	0.00222	1474.12	3.1803E-15	5.19972E-14
	6777.25337	9.41472E-7	6994.78259	0.00303	1475.524	4.32429E-15	1.01016E-13
	6770.81535	7.1452E-7	5313.66793	0.0023	1476.927	3.27564E-15	0
	6764.38497	3.42381E-7	2548.60189	0.0011	1478.331	1.56663E-15	0
	6757.9668	2.14818E-7	1600.57166	6.92892E-4	1479.735	9.81076E-16	2.35571E-14
	6751.56079	2.82206E-7	2104.66272	9.11114E-4	1481.139	1.28639E-15	1.90122E-14
	6745.16692	4.42251E-7	3301.39141	0.00143	1482.543	2.01212E-15	3.88298E-14
	6738.7806	5.6079E-7	4190.24739	0.00181	1483.948	2.54661E-15	8.83199E-14
	6732.40637	6.99313E-7	5230.24377	0.00226	1485.353	3.16966E-15	8.55872E-14
	6726.04418	1.0024E-6	7504.18039	0.00325	1486.758	4.53484E-15	1.07543E-13
	6719.69401	1.30486E-6	9777.63181	0.00423	1488.163	5.89198E-15	3.00929E-13
	6713.35582	1.25483E-6	9411.66875	0.00407	1489.568	5.65542E-15	0
	6707.02507	9.77837E-7	7341.0333	0.00318	1490.974	4.39872E-15	0
	6700.70625	9.19239E-7	6907.62493	0.00299	1492.38	4.12734E-15	0
	6694.39933	9.35214E-7	7034.28756	0.00305	1493.786	4.19116E-15	1.18801E-13
	6688.10427	5.98774E-7	4507.9684	0.00195	1495.192	2.67836E-15	4.75189E-14
	6681.82104	3.42135E-7	2578.24025	0.00112	1496.598	1.52752E-15	2.67489E-14
	6675.54514	2.86705E-7	2162.5621	9.36179E-4	1498.005	1.27764E-15	3.20123E-14
	6669.28102	2.02935E-7	1532.14085	6.63268E-4	1499.412	9.02641E-16	0
	6663.02865	1.80436E-7	1363.55646	5.90287E-4	1500.819	8.01064E-16	0
	6656.78799	4.48404E-8	339.17656	1.4683E-4	1502.226	1.98701E-16	0
	6650.55901	2.86651E-7	2170.28331	9.39521E-4	1503.633	1.26786E-15	0
	6644.33726	9.95401E-7	7543.40225	0.00327	1505.041	4.39442E-15	0
	6638.12715	1.27069E-6	9638.6335	0.00417	1506.449	5.59927E-15	0
	6631.92862	1.11863E-6	8493.10924	0.00368	1507.857	4.92E-15	2.28085E-13
	6625.74167	9.97148E-7	7577.84448	0.00328	1509.265	4.37752E-15	1.05846E-13
	6619.56625	1.09249E-6	8310.16698	0.0036	1510.673	4.78716E-15	8.33532E-14
	6613.39795	1.11382E-6	8480.31691	0.00367	1512.082	4.87153E-15	8.75869E-14
	6607.24114	5.29812E-7	4037.59018	0.00175	1513.491	2.31293E-15	5.14976E-14
	6601.09578	8.61697E-8	657.29372	2.84544E-4	1514.9	3.7548E-16	7.80018E-15
	6594.96184	4.40267E-7	3361.43059	0.00146	1516.309	1.91487E-15	2.91204E-14
	6588.83496	8.09549E-7	6186.64733	0.00268	1517.719	3.51448E-15	4.63094E-14
	6582.72377	7.47266E-7	5715.97635	0.00247	1519.128	3.23807E-15	6.19867E-14
	6576.61959	6.51816E-7	4990.4863	0.00216	1520.538	2.81923E-15	1.80022E-13
	6570.52672	6.07016E-7	4651.79905	0.00201	1521.948	2.6206E-15	0
	6564.44082	4.56841E-7	3504.19196	0.00152	1523.359	1.96861E-15	1.00198E-13
	6558.37048	3.83814E-7	2946.76687	0.00128	1524.769	1.65087E-15	2.76903E-14
	6552.30707	2.29422E-7	1763.03839	7.63224E-4	1526.18	9.84972E-16	1.50731E-14
	6546.25485	-1.97419E-7	-1518.50354	-6.57364E-4	1527.591	-8.46007E-16	-8.05599E-14
	6540.21381	-6.62874E-8	-510.34043	-2.20928E-4	1529.002	-2.8354E-16	0
	6534.18391	5.22289E-7	4024.7626	0.00174	1530.413	2.22994E-15	1.34412E-12
	6528.16085	7.62046E-7	5877.75117	0.00254	1531.825	3.2476E-15	1.00559E-13
	6522.15315	1.00499E-6	7758.72286	0.00336	1533.236	4.27506E-15	1.06281E-13
	6516.15224	9.9074E-7	7655.77839	0.00331	1534.648	4.20671E-15	7.77845E-14
	6510.16236	4.75427E-7	3677.1634	0.00159	1536.06	2.01497E-15	5.13845E-14
	6504.17926	1.19548E-7	925.49078	4.00647E-4	1537.473	5.05742E-16	5.07473E-14
	6498.21137	3.46764E-8	268.69566	1.16319E-4	1538.885	1.46427E-16	6.58494E-15
	6492.2502	3.25079E-7	2521.23989	0.00109	1540.298	1.37018E-15	4.80418E-14
	6486.29996	6.68638E-7	5190.56431	0.00225	1541.711	2.8131E-15	8.9309E-14
	6480.36062	6.41351E-7	4983.30035	0.00216	1543.124	2.69336E-15	9.53432E-14
	6474.42795	8.00392E-7	6224.75357	0.00269	1544.538	3.3551E-15	0
	6468.51032	1.08762E-6	8466.31294	0.00367	1545.951	4.55079E-15	0
	6462.59932	9.60624E-7	7484.57534	0.00324	1547.365	4.01207E-15	0
	6456.69912	8.14614E-7	6352.75172	0.00275	1548.779	3.39604E-15	1.46486E-13
	6450.80967	1.03449E-6	8074.82137	0.0035	1550.193	4.30482E-15	1.18723E-13
	6444.92681	9.86097E-7	7704.10832	0.00334	1551.608	4.09596E-15	1.09383E-13
	6439.05882	8.68751E-7	6793.50162	0.00294	1553.022	3.60197E-15	5.45635E-14
	6433.19736	1.08958E-6	8528.14796	0.00369	1554.437	4.50936E-15	6.32887E-14
	6427.34656	7.32538E-7	5738.77348	0.00248	1555.852	3.02617E-15	1.4963E-13
	6421.5064	1.85519E-7	1454.69364	6.29741E-4	1557.267	7.65E-16	0
	6415.67683	3.06261E-8	240.36395	1.04054E-4	1558.682	1.2606E-16	4.73948E-15
	6409.85374	2.56563E-8	201.5424	8.72482E-5	1560.098	1.05412E-16	3.61374E-15
	6404.04121	3.11414E-7	2448.52795	0.00106	1561.514	1.27716E-15	0
	6398.2392	4.69936E-7	3698.27601	0.0016	1562.93	1.9238E-15	0
	6392.44771	3.61213E-7	2845.22509	0.00123	1564.346	1.47604E-15	3.26448E-13
	6386.6626	4.25717E-7	3356.35772	0.00145	1565.763	1.73648E-15	7.5742E-14
	6380.89204	8.54497E-7	6742.95016	0.00292	1567.179	3.47915E-15	8.62191E-14
	6375.12782	1.28528E-6	10151.47296	0.00439	1568.596	5.22366E-15	1.37782E-13
	6369.37401	1.2346E-6	9760.0018	0.00423	1570.013	5.00864E-15	0
	6363.62653	1.04511E-6	8269.46998	0.00358	1571.431	4.23225E-15	0
	6357.89345	1.0346E-6	8193.66436	0.00355	1572.848	4.18213E-15	8.63507E-14
	6352.16666	8.97555E-7	7114.75483	0.00308	1574.266	3.62164E-15	6.21101E-14
	6346.4542	7.86304E-7	6238.49925	0.0027	1575.683	3.16703E-15	2.51463E-13
	6340.74397	5.79942E-7	4605.37829	0.00199	1577.102	2.33166E-15	1.16353E-12
	6335.04802	-1.56855E-7	-1246.72098	-5.39709E-4	1578.52	-6.29504E-16	-1.73241E-14
	6329.36229	-8.76562E-7	-6973.38351	-0.00302	1579.938	-3.51158E-15	-6.10434E-14
