LASERINDEX	WAVENUMBER	SPWNPOWER	SpWNQuant	SpQuantNorm	Wavelength	SpecWL	FluAbsRatio
Integer Laser Wavelength	cm^-1	nW/cm-1	photon/s/cm^-1	Norm intensity	nm	W/nm	Experimental Ratio
532	11340.38471	2.71593E-6	12059.00389	0.00522	881.8043	3.4928E-14	6.41529E-13
	11323.51253	2.52274E-6	11217.91901	0.00486	883.1182	3.23471E-14	5.97442E-13
	11306.68664	2.1306E-6	9488.26239	0.00411	884.4324	2.72378E-14	5.05637E-13
	11289.90941	1.58821E-6	7083.35247	0.00307	885.7467	2.02437E-14	3.75677E-13
	11273.17808	1.35914E-6	6070.67559	0.00263	887.0613	1.72725E-14	3.21554E-13
	11256.495	1.48055E-6	6622.79507	0.00287	888.376	1.87599E-14	3.53076E-13
	11239.85743	1.72268E-6	7717.29436	0.00334	889.691	2.17634E-14	4.15161E-13
	11223.26646	1.82613E-6	8192.82046	0.00355	891.0062	2.30023E-14	4.42077E-13
	11206.72314	1.55177E-6	6972.19226	0.00302	892.3215	1.94888E-14	3.75101E-13
	11190.22476	1.33233E-6	5995.05718	0.0026	893.6371	1.66836E-14	3.21545E-13
	11173.77239	1.52991E-6	6894.2248	0.00298	894.9529	1.91014E-14	3.67541E-13
	11157.36583	1.74822E-6	7889.58899	0.00342	896.2689	2.1763E-14	4.16725E-13
	11141.00614	1.7444E-6	7883.91222	0.00341	897.585	2.16518E-14	4.12896E-13
	11124.69065	1.64013E-6	7423.54493	0.00321	898.9014	2.02981E-14	3.86617E-13
	11108.4204	1.43706E-6	6513.91136	0.00282	900.218	1.77328E-14	3.39397E-13
	11092.19399	1.14581E-6	5201.35231	0.00225	901.5349	1.40977E-14	2.72025E-13
	11076.01491	9.25504E-7	4207.41496	0.00182	902.8518	1.13539E-14	2.20176E-13
	11059.87807	8.92275E-7	4062.27501	0.00176	904.1691	1.09144E-14	2.11457E-13
	11043.78696	9.33112E-7	4254.382	0.00184	905.4865	1.13807E-14	2.20624E-13
	11027.74017	1.06116E-6	4845.23506	0.0021	906.8041	1.29049E-14	2.50455E-13
	11011.73752	1.28869E-6	5892.69018	0.00255	908.1219	1.56265E-14	3.01021E-13
	10995.77883	1.43979E-6	6593.14947	0.00285	909.4399	1.74081E-14	3.32907E-13
	10979.86271	1.44538E-6	6628.37675	0.00287	910.7582	1.74252E-14	3.32138E-13
	10963.9914	1.46346E-6	6720.98394	0.00291	912.0766	1.75921E-14	3.33068E-13
	10948.16231	1.4218E-6	6539.09341	0.00283	913.3953	1.7042E-14	3.21439E-13
	10932.37767	1.3491E-6	6213.69472	0.00269	914.7141	1.6124E-14	3.04891E-13
	10916.6349	1.26161E-6	5819.12285	0.00252	916.0332	1.5035E-14	2.82896E-13
	10900.93503	1.10357E-6	5097.47866	0.00221	917.3525	1.31137E-14	2.43502E-13
	10885.27906	1.20529E-6	5575.36952	0.00241	918.6719	1.42814E-14	2.61623E-13
	10869.66446	1.38155E-6	6399.87148	0.00277	919.9916	1.6323E-14	2.9547E-13
	10854.09224	1.34559E-6	6242.21514	0.0027	921.3115	1.58525E-14	2.8602E-13
	10838.56339	1.2983E-6	6031.4857	0.00261	922.6315	1.52517E-14	2.76738E-13
	10823.0754	1.41386E-6	6577.73969	0.00285	923.9518	1.65618E-14	3.02346E-13
	10807.62928	1.57159E-6	7322.01935	0.00317	925.2723	1.8357E-14	3.36064E-13
	10792.22485	1.53671E-6	7169.71293	0.0031	926.593	1.78984E-14	3.27735E-13
	10776.86195	1.42568E-6	6661.19135	0.00288	927.9139	1.6558E-14	3.02531E-13
	10761.54041	1.43494E-6	6713.97742	0.00291	929.235	1.66181E-14	3.02052E-13
	10746.26006	1.36048E-6	6374.65757	0.00276	930.5563	1.57112E-14	2.8452E-13
	10731.01959	1.0589E-6	4968.61361	0.00215	931.8779	1.21938E-14	2.21396E-13
	10715.82114	1.01926E-6	4789.40557	0.00207	933.1996	1.17041E-14	2.13208E-13
	10700.66339	1.35124E-6	6358.32057	0.00275	934.5215	1.54723E-14	2.80488E-13
	10685.54617	1.55697E-6	7336.77135	0.00318	935.8436	1.77777E-14	3.189E-13
	10670.4682	1.66106E-6	7838.30552	0.00339	937.166	1.89126E-14	3.35212E-13
	10655.43158	1.7441E-6	8241.78956	0.00357	938.4885	1.98022E-14	3.47156E-13
	10640.43388	1.85973E-6	8800.58699	0.00381	939.8113	2.10557E-14	3.66386E-13
	10625.47722	1.94281E-6	9206.68981	0.00399	941.1342	2.19345E-14	3.78549E-13
	10610.55916	1.66972E-6	7923.66306	0.00343	942.4574	1.87984E-14	3.20348E-13
	10595.68069	1.63006E-6	7746.3234	0.00335	943.7808	1.83004E-14	3.06883E-13
	10580.84277	2.24351E-6	10676.48477	0.00462	945.1043	2.5117E-14	4.13676E-13
	10566.043	2.98664E-6	14232.81945	0.00616	946.4281	3.33432E-14	5.3888E-13
	10551.28234	3.66458E-6	17487.97674	0.00757	947.7521	4.07976E-14	6.46155E-13
	10536.56176	4.02092E-6	19215.28333	0.00832	949.0762	4.46399E-14	6.90807E-13
	10521.87888	4.15399E-6	19878.94625	0.00861	950.4006	4.59888E-14	6.95958E-13
	10507.23465	4.64263E-6	22248.29925	0.00963	951.7252	5.12556E-14	7.62839E-13
	10492.62893	5.34422E-6	25646.0584	0.0111	953.05	5.88373E-14	8.60488E-13
	10478.06046	6.29612E-6	30256.11331	0.0131	954.3751	6.9125E-14	9.83004E-13
	10463.5313	7.55108E-6	36337.19812	0.01573	955.7003	8.26733E-14	1.13765E-12
	10449.04128	8.95347E-6	43145.50921	0.01868	957.0256	9.77562E-14	1.30655E-12
	10434.58698	1.03702E-5	50041.59724	0.02166	958.3513	1.12911E-13	1.46593E-12
	10420.17153	1.13695E-5	54939.63408	0.02378	959.6771	1.2345E-13	1.55569E-12
	10405.7937	1.20797E-5	58452.24222	0.0253	961.0031	1.30799E-13	1.604E-12
	10391.45332	1.29571E-5	62784.44051	0.02718	962.3293	1.39914E-13	1.67319E-12
	10377.14919	1.40052E-5	67956.5699	0.02942	963.6558	1.50815E-13	1.75975E-12
	10362.8833	1.49379E-5	72582.25951	0.03142	964.9824	1.60417E-13	1.82681E-12
	10348.65338	1.58382E-5	77062.30317	0.03336	966.3093	1.69618E-13	1.88587E-12
	10334.46034	1.66465E-5	81106.55075	0.03511	967.6364	1.77786E-13	1.93012E-12
	10320.30512	1.72171E-5	84001.93959	0.03636	968.9636	1.83378E-13	1.94333E-12
	10306.18543	1.84253E-5	90019.86946	0.03897	970.2911	1.95709E-13	2.01712E-12
	10292.10327	2.05864E-5	100715.49806	0.0436	971.6187	2.18066E-13	2.17698E-12
	10278.05637	2.29835E-5	112596.94085	0.04874	972.9466	2.42794E-13	2.33989E-12
	10264.04565	2.54687E-5	124942.2648	0.05409	974.2747	2.68315E-13	2.49546E-12
	10250.07098	2.77951E-5	136540.83958	0.05911	975.603	2.92027E-13	2.63031E-12
	10236.13222	2.97439E-5	146313.13913	0.06334	976.9315	3.11652E-13	2.72604E-12
	10222.23026	3.17135E-5	156213.60914	0.06763	978.2601	3.31387E-13	2.8378E-12
	10208.36185	3.36221E-5	165840.23439	0.07179	979.5891	3.50378E-13	2.96417E-12
	10194.52998	3.52211E-5	173962.60381	0.07531	980.9182	3.66047E-13	3.06649E-12
	10180.73347	3.63197E-5	179631.87908	0.07776	982.2475	3.76444E-13	3.13763E-12
	10166.97218	3.64075E-5	180310.10191	0.07806	983.577	3.76335E-13	3.14495E-12
	10153.24599	3.5645E-5	176772.53617	0.07653	984.9067	3.67459E-13	3.09075E-12
	10139.55475	3.44806E-5	171228.67282	0.07413	986.2366	3.54497E-13	3.0118E-12
	10125.89731	3.29172E-5	163685.58537	0.07086	987.5668	3.37513E-13	2.91114E-12
	10112.27558	3.13747E-5	156225.14968	0.06763	988.8971	3.20831E-13	2.82117E-12
	10098.68842	3.01602E-5	150380.16587	0.0651	990.2276	3.07585E-13	2.7591E-12
	10085.13569	2.85879E-5	142732.17892	0.06179	991.5583	2.90768E-13	2.65892E-12
	10071.61624	2.64953E-5	132461.76596	0.05734	992.8893	2.68762E-13	2.50495E-12
	10058.13097	2.46343E-5	123323.08657	0.05339	994.2205	2.49216E-13	2.35608E-12
	10044.68075	2.31182E-5	115887.83831	0.05017	995.5518	2.33252E-13	2.2296E-12
	10031.26344	2.19694E-5	110276.3526	0.04774	996.8834	2.21069E-13	2.14872E-12
	10017.88092	2.12112E-5	106612.81277	0.04615	998.2151	2.12871E-13	2.11222E-12
	10004.53105	2.01705E-5	101517.44672	0.04395	999.5471	2.01888E-13	2.03921E-12
	9991.21772	1.87665E-5	94576.92732	0.04094	1000.879	1.87335E-13	1.93138E-12
	9977.92882	1.7816E-5	89906.64131	0.03892	1002.212	1.77375E-13	1.86992E-12
	9964.68516	1.73973E-5	87910.16571	0.03806	1003.544	1.72746E-13	1.85199E-12
	9951.4667	1.67773E-5	84889.6057	0.03675	1004.877	1.66148E-13	1.81331E-12
	9938.28326	1.60022E-5	81075.38263	0.0351	1006.21	1.58053E-13	1.76522E-12
	9925.13471	1.52928E-5	77583.64698	0.03359	1007.543	1.50646E-13	1.72487E-12
	9912.01108	1.451E-5	73709.9679	0.03191	1008.877	1.42558E-13	1.66976E-12
	9898.93191	1.38964E-5	70686.00795	0.0306	1010.21	1.36169E-13	1.62835E-12
	9885.87743	1.3377E-5	68134.07594	0.0295	1011.544	1.30734E-13	1.59295E-12
	9872.85734	1.29559E-5	66076.45424	0.0286	1012.878	1.26286E-13	1.56426E-12
	9859.87151	1.28599E-5	65673.18496	0.02843	1014.212	1.2502E-13	1.5753E-12
	9846.91009	1.26465E-5	64668.14762	0.028	1015.547	1.22622E-13	1.56411E-12
	9833.99237	1.23224E-5	63093.91467	0.02731	1016.881	1.19167E-13	1.53485E-12
	9821.09886	1.21943E-5	62519.74217	0.02706	1018.216	1.17619E-13	1.53593E-12
	9808.23912	1.20858E-5	62044.90093	0.02686	1019.551	1.16268E-13	1.53521E-12
	9795.40341	1.21039E-5	62219.34858	0.02693	1020.887	1.16137E-13	1.54556E-12
	9782.61082	1.22191E-5	62893.31849	0.02723	1022.222	1.16936E-13	1.5655E-12
	9769.84206	1.23442E-5	63620.42614	0.02754	1023.558	1.17825E-13	1.57684E-12
	9757.10659	1.26224E-5	65139.13109	0.0282	1024.894	1.20167E-13	1.60605E-12
	9744.40428	1.32053E-5	68235.83628	0.02954	1026.23	1.25388E-13	1.68385E-12
	9731.73499	1.40364E-5	72625.11811	0.03144	1027.566	1.32934E-13	1.79367E-12
	9719.09861	1.44948E-5	75094.11188	0.03251	1028.902	1.36919E-13	1.85071E-12
	9706.48558	1.45738E-5	75601.76845	0.03273	1030.239	1.37308E-13	1.86782E-12
	9693.90525	1.44384E-5	74996.43384	0.03247	1031.576	1.3568E-13	1.86709E-12
	9681.35748	1.40143E-5	72887.92988	0.03155	1032.913	1.31354E-13	1.8348E-12
	9668.84216	1.38498E-5	72125.68708	0.03122	1034.25	1.29477E-13	1.83966E-12
	9656.34982	1.38916E-5	72437.02063	0.03136	1035.588	1.29533E-13	1.86674E-12
	9643.88973	1.36798E-5	71424.85377	0.03092	1036.926	1.27229E-13	1.85707E-12
	9631.46175	1.33112E-5	69589.85225	0.03013	1038.264	1.23481E-13	1.82804E-12
	9619.06576	1.27238E-5	66604.80305	0.02883	1039.602	1.17729E-13	1.77317E-12
	9606.70164	1.1781E-5	61748.57201	0.02673	1040.94	1.08725E-13	1.672E-12
	9594.36005	1.10882E-5	58192.26365	0.02519	1042.279	1.02069E-13	1.59586E-12
	9582.05932	1.09625E-5	57606.43946	0.02494	1043.617	1.00653E-13	1.59493E-12
	9569.78093	1.07903E-5	56774.41038	0.02458	1044.956	9.88184E-14	1.59067E-12
	9557.53397	1.03581E-5	54569.92786	0.02362	1046.295	9.46172E-14	1.54342E-12
	9545.3092	9.76381E-6	51505.08465	0.0223	1047.635	8.89609E-14	1.46918E-12
	9533.12475	9.24149E-6	48812.08869	0.02113	1048.974	8.39871E-14	1.40555E-12
	9520.9623	9.03253E-6	47769.3573	0.02068	1050.314	8.18787E-14	1.39371E-12
	9508.83085	8.81948E-6	46702.10789	0.02022	1051.654	7.97438E-14	1.39223E-12
	9496.73028	8.53756E-6	45266.85532	0.0196	1052.994	7.69984E-14	1.37275E-12
	9484.65146	8.41411E-6	44669.12679	0.01934	1054.335	7.56921E-14	1.3583E-12
	9472.61231	8.04071E-6	42741.08826	0.0185	1055.675	7.21496E-14	1.30225E-12
	9460.59473	7.26814E-6	38683.49511	0.01675	1057.016	6.50519E-14	1.18787E-12
	9448.60761	6.89321E-6	36734.51814	0.0159	1058.357	6.15399E-14	1.13391E-12
	9436.65082	6.92578E-6	36954.87595	0.016	1059.698	6.16744E-14	1.14832E-12
	9424.71537	6.89611E-6	36843.12449	0.01595	1061.04	6.12548E-14	1.15986E-12
	9412.81894	6.88936E-6	36853.60684	0.01595	1062.381	6.10405E-14	1.17591E-12
	9400.94367	6.72068E-6	35996.66402	0.01558	1063.723	5.93958E-14	1.16023E-12
	9389.09832	6.40435E-6	34345.66195	0.01487	1065.065	5.64576E-14	1.11328E-12
	9377.28278	6.37125E-6	34211.21964	0.01481	1066.407	5.60246E-14	1.10869E-12
	9365.48818	6.55359E-6	35234.63778	0.01525	1067.75	5.74831E-14	1.1417E-12
	9353.73195	6.61793E-6	35625.28041	0.01542	1069.092	5.79018E-14	1.16911E-12
	9341.99648	6.69461E-6	36083.29052	0.01562	1070.435	5.84258E-14	1.20502E-12
	9330.29041	6.49638E-6	35058.80353	0.01518	1071.778	5.65538E-14	1.16985E-12
	9318.61365	5.83813E-6	31545.94287	0.01366	1073.121	5.06963E-14	1.03956E-12
	9306.95742	5.5668E-6	30117.49361	0.01304	1074.465	4.82193E-14	9.9071E-13
	9295.3303	5.72924E-6	31035.06536	0.01344	1075.809	4.95024E-14	1.03007E-12
	9283.74083	5.81055E-6	31514.85784	0.01364	1077.152	5.00799E-14	1.05662E-12
	9272.17162	5.8782E-6	31921.54566	0.01382	1078.496	5.05368E-14	1.08276E-12
	9260.62263	5.92985E-6	32242.15297	0.01396	1079.841	5.08539E-14	1.10947E-12
	9249.11093	5.87146E-6	31964.41398	0.01384	1081.185	5.0228E-14	1.10135E-12
	9237.61928	5.49384E-6	29945.87531	0.01296	1082.53	4.6881E-14	1.02279E-12
	9226.15615	5.02574E-6	27428.35005	0.01187	1083.875	4.27801E-14	9.48751E-13
	9214.72144	4.89656E-6	26756.51972	0.01158	1085.22	4.15772E-14	9.40454E-13
	9203.31503	4.73851E-6	25924.94901	0.01122	1086.565	4.01356E-14	9.07404E-13
	9191.92838	4.64722E-6	25457.02915	0.01102	1087.911	3.92651E-14	8.95405E-13
	9180.5783	4.87646E-6	26745.79503	0.01158	1089.256	4.11003E-14	9.51398E-13
	9169.24781	4.97118E-6	27299.00072	0.01182	1090.602	4.17953E-14	9.6872E-13
	9157.94525	4.7993E-6	26387.6676	0.01142	1091.948	4.02508E-14	9.29885E-13
	9146.66215	4.84305E-6	26661.02704	0.01154	1093.295	4.05176E-14	9.32548E-13
	9135.41517	5.20132E-6	28668.58749	0.01241	1094.641	4.34081E-14	9.99972E-13
	9124.18749	5.46865E-6	30179.108	0.01306	1095.988	4.55269E-14	1.05361E-12
	9112.98737	5.46619E-6	30202.63212	0.01307	1097.335	4.53948E-14	1.04681E-12
	9101.81472	5.26461E-6	29124.507	0.01261	1098.682	4.36136E-14	9.99639E-13
	9090.66943	5.26763E-6	29176.98664	0.01263	1100.029	4.35319E-14	9.9169E-13
	9079.54315	5.6698E-6	31443.04033	0.01361	1101.377	4.67408E-14	1.04478E-12
	9068.44408	6.0186E-6	33418.25022	0.01447	1102.725	4.9495E-14	1.07954E-12
	9057.37211	5.94926E-6	33073.60186	0.01432	1104.073	4.88053E-14	1.05426E-12
	9046.32715	5.69253E-6	31684.98621	0.01372	1105.421	4.65854E-14	1.00745E-12
	9035.30908	5.71768E-6	31863.77652	0.01379	1106.769	4.66773E-14	1.00907E-12
	9024.30969	6.06376E-6	33833.62911	0.01465	1108.118	4.93821E-14	1.06433E-12
	9013.33703	6.33412E-6	35385.18989	0.01532	1109.467	5.14586E-14	1.10164E-12
	9002.39104	6.71034E-6	37532.5078	0.01625	1110.816	5.43827E-14	1.15638E-12
	8991.47159	7.32082E-6	40996.76109	0.01775	1112.165	5.91863E-14	1.24722E-12
	8980.5786	7.70203E-6	43183.86408	0.01869	1113.514	6.21175E-14	1.28784E-12
	8969.70393	7.71E-6	43280.97986	0.01874	1114.864	6.20313E-14	1.26315E-12
	8958.85556	7.69974E-6	43275.73733	0.01873	1116.214	6.1799E-14	1.23186E-12
	8948.0334	7.97553E-6	44880.00236	0.01943	1117.564	6.38579E-14	1.24934E-12
	8937.23736	8.09141E-6	45587.06574	0.01973	1118.914	6.46295E-14	1.25517E-12
	8926.46733	7.97455E-6	44982.90173	0.01947	1120.264	6.35427E-14	1.22309E-12
	8915.71529	8.02175E-6	45303.69225	0.01961	1121.615	6.37649E-14	1.21591E-12
	8904.98911	8.23286E-6	46551.95132	0.02015	1122.966	6.52856E-14	1.24519E-12
	8894.28871	8.41291E-6	47627.27373	0.02062	1124.317	6.65532E-14	1.27034E-12
	8883.614	8.42895E-6	47775.39839	0.02068	1125.668	6.65201E-14	1.2608E-12
	8872.957	8.38125E-6	47562.12408	0.02059	1127.02	6.59851E-14	1.2295E-12
	8862.3334	8.30365E-6	47178.21439	0.02042	1128.371	6.52176E-14	1.19428E-12
	8851.72737	8.23753E-6	46858.64799	0.02029	1129.723	6.45436E-14	1.17526E-12
	8841.1467	8.08138E-6	46025.42969	0.01992	1131.075	6.31688E-14	1.15649E-12
	8830.59129	7.69544E-6	43879.76819	0.019	1132.427	6.00085E-14	1.10328E-12
	8820.05327	7.41179E-6	42312.9011	0.01832	1133.78	5.76588E-14	1.05807E-12
	8809.54038	7.43949E-6	42521.73338	0.01841	1135.133	5.77364E-14	1.06276E-12
	8799.06026	7.19874E-6	41194.64991	0.01783	1136.485	5.57351E-14	1.02929E-12
	8788.5896	6.69021E-6	38330.19519	0.01659	1137.839	5.16747E-14	9.50427E-13
	8778.15153	6.74353E-6	38681.62105	0.01675	1139.192	5.19629E-14	9.49514E-13
	8767.73823	7.1664E-6	41156.09462	0.01782	1140.545	5.50904E-14	1.00582E-12
	8757.34194	7.11444E-6	40906.19106	0.01771	1141.899	5.45614E-14	1.00025E-12
	8746.97027	6.62614E-6	38143.78074	0.01651	1143.253	5.06963E-14	9.24992E-13
	8736.62314	6.29448E-6	36277.45823	0.0157	1144.607	4.80449E-14	8.70082E-13
	8726.30046	6.14726E-6	35470.87519	0.01536	1145.961	4.68103E-14	8.50448E-13
	8715.99455	6.07111E-6	35072.92986	0.01518	1147.316	4.61214E-14	8.39848E-13
	8705.71295	6.1874E-6	35786.96806	0.01549	1148.671	4.6894E-14	8.54566E-13
	8695.45558	6.25573E-6	36224.82473	0.01568	1150.026	4.73002E-14	8.71013E-13
	8685.22235	6.08111E-6	35255.13266	0.01526	1151.381	4.58717E-14	8.54152E-13
	8675.01319	5.75784E-6	33420.29323	0.01447	1152.736	4.33311E-14	8.16307E-13
	8664.82048	5.39154E-6	31330.98434	0.01356	1154.092	4.04792E-14	7.7098E-13
	8654.65919	5.20863E-6	30303.61496	0.01312	1155.447	3.90143E-14	7.42036E-13
	8644.51423	5.29199E-6	30824.71114	0.01334	1156.803	3.95458E-14	7.4964E-13
	8634.39303	5.43928E-6	31719.80808	0.01373	1158.159	4.05513E-14	7.73484E-13
	8624.28807	5.38841E-6	31459.96683	0.01362	1159.516	4.00781E-14	7.74452E-13
	8614.21414	5.15102E-6	30109.12544	0.01303	1160.872	3.8223E-14	7.4189E-13
	8604.15632	4.91942E-6	28789.00715	0.01246	1162.229	3.64192E-14	7.03314E-13
	8594.12196	4.53979E-6	26598.3471	0.01151	1163.586	3.35304E-14	6.52773E-13
	8584.11098	4.04083E-6	23702.5915	0.01026	1164.943	2.97756E-14	5.92281E-13
	8574.11594	4.06561E-6	23875.74988	0.01034	1166.301	2.98885E-14	6.05545E-13
	8564.15149	4.53305E-6	26651.79559	0.01154	1167.658	3.32475E-14	6.80179E-13
	8554.20285	4.68218E-6	27560.65937	0.01193	1169.016	3.42616E-14	7.06695E-13
	8544.2773	4.46406E-6	26307.26824	0.01139	1170.374	3.25897E-14	6.78682E-13
	8534.37475	4.48319E-6	26450.62854	0.01145	1171.732	3.26535E-14	6.86448E-13
	8524.48787	4.60569E-6	27204.92909	0.01178	1173.091	3.34682E-14	7.10168E-13
	8514.63112	4.36624E-6	25820.4017	0.01118	1174.449	3.16548E-14	6.80035E-13
	8504.7899	4.25344E-6	25182.41436	0.0109	1175.808	3.07657E-14	6.69203E-13
	8494.9714	4.45671E-6	26416.3995	0.01144	1177.167	3.21617E-14	7.02608E-13
	8485.17555	4.61549E-6	27389.09453	0.01186	1178.526	3.32307E-14	7.26084E-13
	8475.39508	4.4421E-6	26390.599	0.01142	1179.886	3.19086E-14	6.97839E-13
	8465.63713	4.07366E-6	24229.55392	0.01049	1181.246	2.91947E-14	6.39766E-13
	8455.90878	3.84027E-6	22867.6943	0.0099	1182.605	2.74589E-14	6.02017E-13
	8446.18849	3.52761E-6	21030.03603	0.0091	1183.966	2.51653E-14	5.49012E-13
	8436.49764	3.30297E-6	19713.4518	0.00853	1185.326	2.35087E-14	5.1427E-13
	8426.829	3.45224E-6	20628.04269	0.00893	1186.686	2.45149E-14	5.45954E-13
	8417.17541	3.67091E-6	21959.80206	0.00951	1188.047	2.6008E-14	5.83326E-13
	8407.54392	3.7817E-6	22648.45863	0.0098	1189.408	2.67316E-14	5.98672E-13
	8397.93444	3.64198E-6	21836.65095	0.00945	1190.769	2.56852E-14	5.85281E-13
	8388.34691	3.09922E-6	18603.60353	0.00805	1192.13	2.18075E-14	5.06868E-13
	8378.77422	2.76409E-6	16610.84732	0.00719	1193.492	1.94049E-14	4.54042E-13
	8369.23036	3.12451E-6	18798.26364	0.00814	1194.853	2.18854E-14	5.18912E-13
	8359.70122	3.35363E-6	20199.68415	0.00874	1196.215	2.34367E-14	5.60178E-13
	8350.19377	3.07101E-6	18518.47835	0.00802	1197.577	2.14128E-14	5.1274E-13
	8340.70095	2.8633E-6	17285.64506	0.00748	1198.94	1.99192E-14	4.88214E-13
	8331.23664	2.80689E-6	16964.33577	0.00734	1200.302	1.94825E-14	4.89581E-13
	8321.78685	2.76621E-6	16737.47533	0.00725	1201.665	1.91566E-14	4.85515E-13
	8312.35848	2.71356E-6	16437.47824	0.00712	1203.028	1.87494E-14	4.75876E-13
	8302.95145	2.59038E-6	15709.08927	0.0068	1204.391	1.78578E-14	4.53386E-13
	8293.56569	2.39882E-6	14563.87228	0.0063	1205.754	1.64998E-14	4.19879E-13
	8284.19425	2.37725E-6	14449.27757	0.00626	1207.118	1.63146E-14	4.15572E-13
	8274.84398	2.68513E-6	16339.03282	0.00707	1208.482	1.83859E-14	4.67635E-13
	8265.51478	2.72162E-6	16579.75045	0.00718	1209.846	1.85937E-14	4.77637E-13
	8256.2066	2.25641E-6	13761.24595	0.00596	1211.21	1.53808E-14	4.01996E-13
	8246.91936	2.01425E-6	12298.22884	0.00532	1212.574	1.36993E-14	3.62205E-13
	8237.64621	2.2172E-6	13552.60451	0.00587	1213.939	1.50457E-14	4.01338E-13
	8228.39388	2.46564E-6	15088.11203	0.00653	1215.304	1.6694E-14	4.48972E-13
	8219.16232	2.51559E-6	15411.10319	0.00667	1216.669	1.6994E-14	4.61309E-13
	8209.95145	2.25197E-6	13811.58709	0.00598	1218.034	1.51791E-14	4.12686E-13
	8200.76119	1.95365E-6	11995.34426	0.00519	1219.399	1.31388E-14	3.5465E-13
	8191.58478	1.9134E-6	11761.37218	0.00509	1220.765	1.28393E-14	3.45457E-13
	8182.43558	1.92531E-6	11847.84725	0.00513	1222.13	1.28904E-14	3.48589E-13
	8173.30012	1.82341E-6	11233.29744	0.00486	1223.496	1.21809E-14	3.34751E-13
	8164.17836	1.80407E-6	11126.55554	0.00482	1224.863	1.20248E-14	3.32859E-13
	8155.08359	1.93212E-6	11929.61073	0.00516	1226.229	1.28496E-14	3.53131E-13
	8146.00243	1.84832E-6	11424.9286	0.00495	1227.596	1.2265E-14	3.36908E-13
	8136.94147	1.56909E-6	9709.7225	0.0042	1228.963	1.03889E-14	2.86424E-13
	8127.90064	1.28678E-6	7971.6319	0.00345	1230.33	8.50084E-15	2.37048E-13
	8118.87989	1.27963E-6	7936.1521	0.00344	1231.697	8.43485E-15	2.37168E-13
	8109.87913	1.47916E-6	9183.76555	0.00398	1233.064	9.72844E-15	2.74454E-13
	8100.89175	1.47943E-6	9195.6448	0.00398	1234.432	9.70867E-15	2.78172E-13
	8091.92426	1.68206E-6	10466.74353	0.00453	1235.8	1.1014E-14	3.17339E-13
	8082.9766	1.85561E-6	11559.43367	0.005	1237.168	1.21235E-14	3.48438E-13
	8074.04872	1.55477E-6	9696.0697	0.0042	1238.536	1.01356E-14	2.95149E-13
	8065.13402	1.31964E-6	8238.81552	0.00357	1239.905	8.58378E-15	2.52914E-13
	8056.24548	1.31318E-6	8207.51692	0.00355	1241.273	8.52293E-15	2.49252E-13
	8047.37004	1.40687E-6	8802.76926	0.00381	1242.642	9.11088E-15	2.61888E-13
	8038.51413	1.39151E-6	8716.2791	0.00377	1244.011	8.99162E-15	2.53437E-13
	8029.67769	1.22531E-6	7683.69722	0.00333	1245.38	7.9003E-15	2.20135E-13
	8020.85422	1.22152E-6	7668.35554	0.00332	1246.75	7.85857E-15	2.19613E-13
	8012.05012	1.41096E-6	8867.32556	0.00384	1248.12	9.05739E-15	2.53557E-13
	8003.26533	1.65251E-6	10396.76669	0.0045	1249.49	1.05847E-14	2.94624E-13
	7994.49978	1.70671E-6	10749.54731	0.00465	1250.86	1.0908E-14	2.99847E-13
	7985.75342	1.47637E-6	9308.9616	0.00403	1252.23	9.41517E-15	2.57016E-13
	7977.02616	1.32225E-6	8346.28991	0.00361	1253.6	8.41387E-15	2.30237E-13
	7968.31162	1.59028E-6	10049.11716	0.00435	1254.971	1.00973E-14	2.75103E-13
	7959.61609	1.66123E-6	10508.90186	0.00455	1256.342	1.05248E-14	2.87756E-13
	7950.93952	1.29618E-6	8208.57005	0.00355	1257.713	8.19412E-15	2.25338E-13
	7942.27554	1.37283E-6	8703.48305	0.00377	1259.085	8.65979E-15	2.35157E-13
	7933.63672	1.64513E-6	10441.15465	0.00452	1260.456	1.03549E-14	2.79486E-13
	7925.01038	1.45479E-6	9243.14713	0.004	1261.828	9.13689E-15	2.4974E-13
	7916.40279	1.17927E-6	7500.78946	0.00325	1263.2	7.39043E-15	2.03766E-13
	7907.81387	1.03556E-6	6593.88615	0.00285	1264.572	6.47575E-15	1.76665E-13
	7899.24357	1.02321E-6	6522.26979	0.00282	1265.944	6.38461E-15	1.71618E-13
	7890.6856	1.29349E-6	8254.11205	0.00357	1267.317	8.05367E-15	2.16781E-13
	7882.14615	1.56502E-6	9997.60132	0.00433	1268.69	9.72318E-15	2.63945E-13
	7873.62517	1.54871E-6	9904.11057	0.00429	1270.063	9.60105E-15	2.60191E-13
	7865.12259	1.47419E-6	9437.74809	0.00409	1271.436	9.11935E-15	2.43977E-13
	7856.63835	1.36495E-6	8747.86637	0.00379	1272.809	8.42542E-15	2.26411E-13
	7848.16624	1.16851E-6	7496.95685	0.00325	1274.183	7.19729E-15	1.96853E-13
	7839.71238	1.26733E-6	8139.76014	0.00352	1275.557	7.78917E-15	2.12904E-13
	7831.27671	1.57216E-6	10108.45083	0.00438	1276.931	9.64188E-15	2.61834E-13
	7822.85918	1.66954E-6	10746.16042	0.00465	1278.305	1.02171E-14	2.79091E-13
	7814.45972	1.75701E-6	11321.27186	0.0049	1279.679	1.07293E-14	2.96459E-13
	7806.07219	1.75862E-6	11343.864	0.00491	1281.054	1.07161E-14	2.90323E-13
	7797.70264	1.53749E-6	9928.10489	0.0043	1282.429	9.34858E-15	2.49079E-13
	7789.35102	1.32019E-6	8534.05189	0.00369	1283.804	8.01011E-15	2.18259E-13
	7781.01727	9.371E-7	6064.15666	0.00263	1285.179	5.6736E-15	1.55863E-13
	7772.70134	9.44625E-7	6119.39386	0.00265	1286.554	5.70694E-15	1.55595E-13
	7764.39713	1.47347E-6	9555.49403	0.00414	1287.93	8.88292E-15	2.40976E-13
	7756.11065	1.53924E-6	9992.71966	0.00433	1289.306	9.25966E-15	2.48198E-13
	7747.84184	1.34933E-6	8769.18118	0.0038	1290.682	8.09992E-15	2.1671E-13
	7739.59064	1.26679E-6	8241.53841	0.00357	1292.058	7.58825E-15	2.06475E-13
	7731.35101	1.02282E-6	6661.3978	0.00288	1293.435	6.11379E-15	1.68083E-13
	7723.13488	9.10137E-7	5933.81234	0.00257	1294.811	5.42868E-15	1.48827E-13
	7714.93024	1.25517E-6	8192.05498	0.00355	1296.188	7.47082E-15	2.05917E-13
	7706.74301	1.62215E-6	10598.42877	0.00459	1297.565	9.63459E-15	2.63777E-13
	7698.56722	1.54855E-6	10128.28111	0.00438	1298.943	9.17793E-15	2.4593E-13
	7690.41467	1.36926E-6	8965.15651	0.00388	1300.32	8.09816E-15	2.1524E-13
	7682.27346	1.53107E-6	10035.21936	0.00434	1301.698	9.03598E-15	2.37648E-13
	7674.14947	1.69257E-6	11105.46702	0.00481	1303.076	9.96797E-15	2.58204E-13
	7666.04265	1.56668E-6	10290.31734	0.00445	1304.454	9.20708E-15	2.39052E-13
	7657.95294	1.29179E-6	8493.74879	0.00368	1305.832	7.57559E-15	1.99766E-13
	7649.87443	8.48802E-7	5586.92275	0.00242	1307.211	4.96724E-15	1.32033E-13
	7641.81878	6.64798E-7	4380.39828	0.0019	1308.589	3.88225E-15	1.01614E-13
	7633.77426	8.82718E-7	5822.41533	0.00252	1309.968	5.14399E-15	1.32959E-13
	7625.74666	1.21364E-6	8013.59171	0.00347	1311.347	7.05754E-15	1.86251E-13
	7617.73011	1.69245E-6	11186.96117	0.00484	1312.727	9.82128E-15	2.66022E-13
	7609.7362	1.88852E-6	12496.07398	0.00541	1314.106	1.09361E-14	2.96611E-13
	7601.75327	1.73376E-6	11484.04544	0.00497	1315.486	1.00188E-14	2.6493E-13
	7593.78707	1.5109E-6	10018.40101	0.00434	1316.866	8.7127E-15	2.24357E-13
	7585.83754	1.18441E-6	7861.71875	0.0034	1318.246	6.81565E-15	1.76555E-13
	7577.90465	1.06942E-6	7105.93949	0.00308	1319.626	6.14113E-15	1.62731E-13
	7569.9826	1.22802E-6	8168.26788	0.00354	1321.007	7.0371E-15	1.86915E-13
	7562.07709	1.37938E-6	9184.67808	0.00398	1322.388	7.88799E-15	2.05364E-13
	7554.18808	1.45186E-6	9677.40034	0.00419	1323.769	8.28517E-15	2.12998E-13
	7546.31551	1.43053E-6	9545.14212	0.00413	1325.15	8.14641E-15	2.10064E-13
	7538.45933	1.15937E-6	7743.90031	0.00335	1326.531	6.5885E-15	1.70104E-13
	7530.61383	8.38131E-7	5604.0562	0.00243	1327.913	4.75306E-15	1.2228E-13
	7522.78463	9.99813E-7	6692.0768	0.0029	1329.295	5.65817E-15	1.45939E-13
	7514.9717	1.25582E-6	8414.37384	0.00364	1330.677	7.09223E-15	1.84451E-13
	7507.17498	1.01781E-6	6826.68762	0.00296	1332.059	5.73613E-15	1.49634E-13
	7499.39442	7.60571E-7	5106.62871	0.00221	1333.441	4.27752E-15	1.10994E-13
	7491.62436	7.49817E-7	5039.64617	0.00218	1334.824	4.20831E-15	1.07612E-13
	7483.87039	8.71947E-7	5866.57549	0.00254	1336.207	4.88363E-15	1.25563E-13
	7476.13245	1.09502E-6	7375.03823	0.00319	1337.59	6.12032E-15	1.61049E-13
	7468.41049	1.04934E-6	7074.69158	0.00306	1338.973	5.8529E-15	1.5234E-13
	7460.70447	7.61523E-7	5139.53723	0.00222	1340.356	4.2388E-15	1.07984E-13
	7453.00878	5.95079E-7	4020.34873	0.00174	1341.74	3.30551E-15	8.27707E-14
	7445.32895	5.08829E-7	3441.19077	0.00149	1343.124	2.82059E-15	6.80627E-14
	7437.66493	6.24012E-7	4224.51771	0.00183	1344.508	3.45196E-15	8.20602E-14
	7430.01667	1.01154E-6	6855.08298	0.00297	1345.892	5.5842E-15	1.35697E-13
	7422.37862	9.79242E-7	6643.05144	0.00288	1347.277	5.39481E-15	1.31824E-13
	7414.76175	4.53977E-7	3082.88259	0.00133	1348.661	2.4959E-15	6.05474E-14
	7407.15502	1.9879E-7	1351.34052	5.84999E-4	1350.046	1.09068E-15	2.6633E-14
	7399.56387	3.94803E-7	2686.55227	0.00116	1351.431	2.16169E-15	5.31798E-14
	7391.9828	5.89457E-7	4015.24272	0.00174	1352.817	3.22088E-15	7.92704E-14
	7384.42271	6.02548E-7	4108.61885	0.00178	1354.202	3.28568E-15	7.98324E-14
	7376.87262	7.14444E-7	4876.59175	0.00211	1355.588	3.88788E-15	9.16217E-14
	7369.33795	8.6999E-7	5944.37674	0.00257	1356.974	4.72466E-15	1.08532E-13
	7361.81866	9.47358E-7	6479.62399	0.00281	1358.36	5.13434E-15	1.16556E-13
	7354.3147	1.06026E-6	7259.21424	0.00314	1359.746	5.7345E-15	1.28472E-13
	7346.82602	9.04094E-7	6196.33087	0.00268	1361.132	4.87992E-15	1.0961E-13
	7339.34719	3.2219E-7	2210.42632	9.56899E-4	1362.519	1.73551E-15	3.97023E-14
	7331.88358	9.35714E-8	642.61102	2.78188E-4	1363.906	5.03007E-16	1.14372E-14
	7324.43512	3.38335E-7	2325.91462	0.00101	1365.293	1.81508E-15	4.11059E-14
	7316.99643	2.73688E-7	1883.40727	8.15332E-4	1366.681	1.46528E-15	3.45672E-14
	7309.57818	-6.16283E-8	-424.53002	-1.8378E-4	1368.068	-3.29279E-16	-8.04067E-15
	7302.16962	-9.84966E-8	-679.18794	-2.94022E-4	1369.456	-5.252E-16	-1.22135E-14
	7294.77606	3.56473E-7	2460.57152	0.00107	1370.844	1.89693E-15	3.97288E-14
	7287.39747	6.12886E-7	4234.75407	0.00183	1372.232	3.2548E-15	6.46978E-14
	7280.03378	2.89624E-7	2003.18773	8.67185E-4	1373.62	1.53497E-15	3.1061E-14
	7272.67967	1.71819E-7	1189.5904	5.14977E-4	1375.009	9.08783E-16	1.82231E-14
	7265.3404	3.86996E-7	2682.07867	0.00116	1376.398	2.04277E-15	3.96329E-14
	7258.01593	5.21003E-7	3614.45769	0.00156	1377.787	2.74458E-15	5.60962E-14
	7250.70622	5.41731E-7	3762.04543	0.00163	1379.176	2.84803E-15	6.74848E-14
	7243.41121	3.78721E-7	2632.67008	0.00114	1380.565	1.98703E-15	4.87693E-14
	7236.12563	1.1882E-7	826.80576	3.57926E-4	1381.955	6.22158E-16	1.55627E-14
	7228.85992	9.86661E-8	687.25677	2.97515E-4	1383.344	5.15594E-16	1.59293E-14
	7221.60357	3.87497E-7	2701.81364	0.00117	1384.734	2.02086E-15	6.68044E-14
	7214.35657	4.44258E-7	3100.68934	0.00134	1386.125	2.31223E-15	7.27151E-14
	7207.12929	1.27881E-7	893.43731	3.86771E-4	1387.515	6.64248E-16	2.10811E-14
	7199.9113	7.15213E-8	500.18284	2.1653E-4	1388.906	3.70757E-16	1.28191E-14
	7192.70775	3.9934E-7	2795.57299	0.00121	1390.297	2.06599E-15	7.01965E-14
	7185.52376	5.7645E-7	4039.4681	0.00175	1391.687	2.97631E-15	1.09577E-13
	7178.3438	2.42855E-7	1703.50258	7.37451E-4	1393.079	1.2514E-15	9.98324E-14
	7171.18332	-1.47796E-7	-1037.75096	-4.49245E-4	1394.47	-7.60055E-16	-4.71039E-14
	7164.03197	-7.38389E-8	-518.97772	-2.24667E-4	1395.862	-3.78966E-16	-9.3093E-15
	7156.89488	5.27126E-9	37.08607	1.60547E-5	1397.254	2.7E-17	5.85486E-16
	7149.77199	-1.34006E-7	-943.74318	-4.08549E-4	1398.646	-6.8503E-16	-1.61347E-14
	7142.66327	-1.76049E-7	-1241.06575	-5.37261E-4	1400.038	-8.98162E-16	-2.11327E-14
	7135.56867	-2.62026E-7	-1848.99679	-8.00436E-4	1401.43	-1.33414E-15	-4.48888E-14
	7128.48307	-3.07776E-7	-2173.995	-9.41128E-4	1402.823	-1.56397E-15	-7.28876E-14
	7121.41152	-1.29113E-7	-912.90401	-3.95199E-4	1404.216	-6.54791E-16	-2.25621E-14
	7114.35399	1.57259E-7	1113.01203	4.81826E-4	1405.609	7.9595E-16	2.38582E-14
	7107.31044	2.32269E-7	1645.53602	7.12357E-4	1407.002	1.17328E-15	4.1942E-14
	7100.27577	-1.92057E-8	-136.19926	-5.8961E-5	1408.396	-9.68232E-17	-4.13612E-15
	7093.26006	-1.65374E-7	-1173.9302	-5.08197E-4	1409.789	-8.32069E-16	-3.40857E-14
	7086.25316	-2.2632E-7	-1608.15449	-6.96174E-4	1411.183	-1.13647E-15	-3.60057E-14
	7079.2601	-2.78321E-7	-1979.6079	-8.56977E-4	1412.577	-1.39483E-15	-3.52876E-14
	7072.27583	-2.31389E-7	-1647.41831	-7.13172E-4	1413.972	-1.15734E-15	-3.09547E-14
	7065.31032	-9.32489E-8	-664.55821	-2.87689E-4	1415.366	-4.65485E-16	-1.68259E-14
	7058.35353	1.06154E-7	757.27357	3.27826E-4	1416.761	5.28862E-16	1.6014E-14
	7051.41042	1.84852E-7	1319.98208	5.71424E-4	1418.156	9.19126E-16	1.92766E-14
	7044.48097	1.23055E-7	879.57437	3.8077E-4	1419.551	6.10659E-16	1.24171E-14
	7037.56512	-6.35821E-8	-454.91822	-1.96935E-4	1420.946	-3.14905E-16	-5.69889E-15
	7030.65789	-3.72016E-7	-2664.32036	-0.00115	1422.342	-1.83888E-15	-2.91103E-14
	7023.7642	-6.33238E-7	-4539.60222	-0.00197	1423.738	-3.12397E-15	-6.97822E-14
	7016.88895	-4.7977E-7	-3442.78287	-0.00149	1425.133	-2.36223E-15	-9.87827E-14
	7010.01731	-3.97928E-8	-285.82924	-1.23736E-4	1426.53	-1.95543E-16	-1.00935E-14
	7003.16403	-7.93126E-8	-570.25458	-2.46865E-4	1427.926	-3.88983E-16	-9.60058E-15
	6996.31924	-1.18514E-7	-852.94107	-3.6924E-4	1429.323	-5.80106E-16	-5.98808E-15
	6989.4927	3.06577E-7	2208.58984	9.56104E-4	1430.719	1.49772E-15	1.51867E-14
	6982.67459	2.67688E-7	1930.3113	8.35637E-4	1432.116	1.30518E-15	3.21815E-14
	6975.86977	-1.86992E-7	-1349.72269	-5.84299E-4	1433.513	-9.09953E-16	-3.65707E-14
	6969.07334	-4.31148E-7	-3115.10089	-0.00135	1434.911	-2.094E-15	-4.42025E-14
	6962.295	-1.90417E-7	-1377.13012	-5.96163E-4	1436.308	-9.23021E-16	-1.70083E-14
	6955.52498	1.16804E-7	845.56601	3.66048E-4	1437.706	5.65089E-16	2.18361E-14
	6948.76812	-1.67179E-7	-1211.41719	-5.24426E-4	1439.104	-8.07228E-16	-4.2789E-14
	6942.02438	-3.63489E-7	-2636.48762	-0.00114	1440.502	-1.75171E-15	-3.12196E-14
	6935.2889	-1.434E-7	-1041.13416	-4.5071E-4	1441.901	-6.89731E-16	-9.81007E-15
	6928.57128	6.49818E-8	472.24652	2.04437E-4	1443.299	3.11946E-16	7.95107E-15
	6921.86187	1.53551E-7	1116.99277	4.83549E-4	1444.698	7.35696E-16	2.41718E-14
	6915.16544	-5.45636E-9	-39.73022	-1.71993E-5	1446.097	-2.6092E-17	-5.15503E-16
	6908.48196	-1.0212E-7	-744.30168	-3.2221E-4	1447.496	-4.87389E-16	-1.25488E-14
	6901.80662	2.68377E-9	19.5796	8.47606E-6	1448.896	1.27841E-17	4.39878E-16
	6895.14892	-1.22622E-7	-895.45516	-3.87645E-4	1450.295	-5.82981E-16	-1.21064E-14
	6888.49931	-4.7544E-7	-3475.29604	-0.0015	1451.695	-2.25603E-15	-4.77866E-14
	6881.86251	-5.66203E-7	-4142.73423	-0.00179	1453.095	-2.68154E-15	-5.12203E-14
	6875.23848	-3.89193E-7	-2850.3457	-0.00123	1454.495	-1.83967E-15	-1.97217E-14
	6868.62248	-2.66064E-7	-1950.45764	-8.44358E-4	1455.896	-1.25523E-15	-1.36055E-14
	6862.0192	-5.60518E-8	-411.29973	-1.78053E-4	1457.297	-2.63933E-16	-6.13291E-15
	6855.42861	1.6882E-7	1239.9667	5.36785E-4	1458.698	7.93402E-16	4.62955E-14
	6848.85066	1.70247E-7	1251.64998	5.41843E-4	1460.099	7.98574E-16	3.96143E-14
	6842.28532	1.68407E-7	1239.31271	5.36502E-4	1461.5	7.88431E-16	2.52129E-14
	6835.73256	2.06559E-7	1521.52535	6.58672E-4	1462.901	9.65192E-16	2.74734E-14
	6829.18767	5.03076E-8	370.92415	1.60574E-4	1464.303	2.34623E-16	7.29689E-15
	6822.65531	-1.33969E-7	-988.71559	-4.28018E-4	1465.705	-6.23607E-16	-2.90173E-14
	6816.13543	-4.38796E-7	-3241.49206	-0.0014	1467.107	-2.03863E-15	-9.46454E-14
	6809.628	-9.3664E-7	-6925.80062	-0.003	1468.509	-4.3433E-15	-1.04323E-13
	6803.12835	-7.39299E-7	-5471.82557	-0.00237	1469.912	-3.42166E-15	-7.75132E-14
	6796.64572	8.05155E-8	596.49322	2.58223E-4	1471.314	3.71936E-16	1.21727E-14
	6790.17082	4.44483E-7	3296.05877	0.00143	1472.717	2.04935E-15	5.978E-14
	6783.70825	1.58963E-7	1179.91314	5.10788E-4	1474.12	7.31528E-16	1.19603E-14
	6777.25337	-9.1714E-8	-681.40096	-2.9498E-4	1475.524	-4.21253E-16	-9.84054E-15
	6770.81535	-1.25467E-7	-933.05984	-4.03924E-4	1476.927	-5.7519E-16	0
	6764.38497	-2.50314E-7	-1863.2742	-8.06616E-4	1478.331	-1.14536E-15	0
	6757.9668	-8.14316E-8	-606.73291	-2.62656E-4	1479.735	-3.71899E-16	-8.92987E-15
	6751.56079	8.19868E-8	611.44904	2.64698E-4	1481.139	3.73725E-16	5.52344E-15
	6745.16692	-1.64618E-7	-1228.86746	-5.3198E-4	1482.543	-7.48967E-16	-1.44535E-14
	6738.7806	-3.05432E-7	-2282.20487	-9.87972E-4	1483.948	-1.387E-15	-4.81032E-14
	6732.40637	-2.01389E-7	-1506.21402	-6.52044E-4	1485.353	-9.12803E-16	-2.46475E-14
	6726.04418	8.99093E-9	67.30784	2.91377E-5	1486.758	4.06747E-17	9.64594E-16
	6719.69401	1.77225E-7	1327.99736	5.74894E-4	1488.163	8.00249E-16	4.08722E-14
	6713.35582	3.39261E-7	2544.57449	0.0011	1489.568	1.52902E-15	0
	6707.02507	5.20201E-7	3905.36803	0.00169	1490.974	2.34008E-15	0
	6700.70625	4.50584E-7	3385.91446	0.00147	1492.38	2.0231E-15	0
	6694.39933	3.97023E-7	2986.24221	0.00129	1493.786	1.77926E-15	5.04342E-14
	6688.10427	5.43087E-7	4088.72135	0.00177	1495.192	2.42927E-15	4.30995E-14
	6681.82104	2.85436E-7	2150.96872	9.3116E-4	1496.598	1.27438E-15	2.2316E-14
	6675.54514	-4.02092E-7	-3032.91016	-0.00131	1498.005	-1.79184E-15	-4.4896E-14
	6669.28102	-7.97238E-7	-6019.07138	-0.00261	1499.412	-3.54606E-15	0
	6663.02865	-6.17008E-7	-4662.72863	-0.00202	1500.819	-2.73927E-15	0
	6656.78799	-1.94357E-7	-1470.12903	-6.36423E-4	1502.226	-8.61249E-16	0
	6650.55901	1.22472E-7	927.25768	4.01412E-4	1503.633	5.41694E-16	0
	6644.33726	1.86996E-7	1417.10309	6.13468E-4	1505.041	8.25535E-16	0
	6638.12715	-2.21355E-8	-167.90511	-7.26866E-5	1506.449	-9.75394E-17	0
	6631.92862	-3.66144E-7	-2779.92084	-0.0012	1507.857	-1.61039E-15	-7.46555E-14
	6625.74167	-6.19333E-7	-4706.63146	-0.00204	1509.265	-2.7189E-15	-6.57416E-14
	6619.56625	-5.39862E-7	-4106.5176	-0.00178	1510.673	-2.3656E-15	-4.11895E-14
	6613.39795	3.09549E-9	23.56818	1.02027E-5	1512.082	1.35388E-17	2.43418E-16
	6607.24114	4.4647E-7	3402.46132	0.00147	1513.491	1.94909E-15	4.33968E-14
	6601.09578	6.20672E-7	4734.42388	0.00205	1514.9	2.70455E-15	5.61839E-14
	6594.96184	9.15817E-7	6992.25136	0.00303	1516.309	3.98321E-15	6.05746E-14
	6588.83496	6.3307E-7	4837.98063	0.00209	1517.719	2.74833E-15	3.62141E-14
	6582.72377	-2.9911E-7	-2287.94968	-9.90459E-4	1519.128	-1.29611E-15	-2.48116E-14
	6576.61959	-7.53896E-7	-5772.04502	-0.0025	1520.538	-3.26075E-15	-2.08215E-13
	6570.52672	-2.64332E-7	-2025.68033	-8.76922E-4	1521.948	-1.14117E-15	0
	6564.44082	4.44285E-7	3407.88654	0.00148	1523.359	1.91451E-15	9.74442E-14
	6558.37048	5.0836E-7	3902.98199	0.00169	1524.769	2.18657E-15	3.66757E-14
	6552.30707	1.21683E-7	935.09574	4.04805E-4	1526.18	5.22418E-16	7.99461E-15
	6546.25485	-1.54237E-7	-1186.36196	-5.13579E-4	1527.591	-6.6096E-16	-6.29391E-14
	6540.21381	-1.6897E-7	-1300.88403	-5.63156E-4	1529.002	-7.22759E-16	0
	6534.18391	-2.09916E-7	-1617.61104	-7.00268E-4	1530.413	-8.96246E-16	-5.40222E-13
	6528.16085	-1.61997E-7	-1249.49941	-5.40912E-4	1531.825	-6.90379E-16	-2.1377E-14
	6522.15315	1.19869E-7	925.41905	4.00616E-4	1533.236	5.09907E-16	1.26766E-14
	6516.15224	1.74972E-7	1352.06585	5.85313E-4	1534.648	7.42935E-16	1.37373E-14
	6510.16236	2.61893E-7	2025.59423	8.76885E-4	1536.06	1.10996E-15	2.83055E-14
	6504.17926	3.47687E-7	2691.63957	0.00117	1537.473	1.47087E-15	1.4759E-13
	6498.21137	2.36218E-8	183.0377	7.92375E-5	1538.885	9.97473E-17	4.48571E-15
	6492.2502	2.4768E-7	1920.94946	8.31584E-4	1540.298	1.04395E-15	3.66034E-14
	6486.29996	1.0535E-6	8178.21549	0.00354	1541.711	4.4323E-15	1.40715E-13
	6480.36062	1.08163E-6	8404.27855	0.00364	1543.124	4.54231E-15	1.60795E-13
	6474.42795	3.21635E-7	2501.3948	0.00108	1544.538	1.34824E-15	0
	6468.51032	-2.779E-7	-2163.24085	-9.36473E-4	1545.951	-1.16278E-15	0
	6462.59932	-4.78375E-7	-3727.19299	-0.00161	1547.365	-1.99794E-15	0
	6456.69912	-4.42661E-7	-3452.08499	-0.00149	1548.779	-1.84541E-15	-7.96005E-14
	6450.80967	-1.65857E-7	-1294.61135	-5.60441E-4	1550.193	-6.90178E-16	-1.90345E-14
	6444.92681	1.66507E-7	1300.87068	5.6315E-4	1551.608	6.9162E-16	1.84699E-14
	6439.05882	4.83723E-7	3782.63995	0.00164	1553.022	2.00559E-15	3.03811E-14
	6433.19736	6.8392E-7	5353.0236	0.00232	1554.437	2.83047E-15	3.97256E-14
	6427.34656	3.48848E-7	2732.91065	0.00118	1555.852	1.44112E-15	7.12566E-14
	6421.5064	-2.42488E-7	-1901.40489	-8.23123E-4	1557.267	-9.99919E-16	0
	6415.67683	-2.25851E-7	-1772.5569	-7.67345E-4	1558.682	-9.29623E-16	-3.49512E-14
	6409.85374	1.56921E-7	1232.69205	5.33636E-4	1560.098	6.4473E-16	2.21027E-14
	6404.04121	3.53098E-7	2776.27453	0.0012	1561.514	1.44812E-15	0
	6398.2392	1.24261E-7	977.90522	4.23338E-4	1562.93	5.08695E-16	0
	6392.44771	-6.92315E-7	-5453.27295	-0.00236	1564.346	-2.82903E-15	-6.25684E-13
	6386.6626	-7.67096E-7	-6047.78706	-0.00262	1565.763	-3.12894E-15	-1.36479E-13
	6380.89204	1.80868E-7	1427.25417	6.17862E-4	1567.179	7.36419E-16	1.82497E-14
	6375.12782	7.09648E-7	5604.98665	0.00243	1568.596	2.88417E-15	7.60742E-14
	6369.37401	5.7706E-7	4561.89132	0.00197	1570.013	2.34107E-15	0
	6363.62653	8.40384E-8	664.95718	2.87862E-4	1571.431	3.4032E-16	0
	6357.89345	-3.3615E-7	-2662.20197	-0.00115	1572.848	-1.35881E-15	-2.80562E-14
	6352.16666	-3.19868E-7	-2535.53579	-0.0011	1574.266	-1.29067E-15	-2.21346E-14
	6346.4542	-1.58394E-7	-1256.6942	-5.44026E-4	1575.683	-6.37973E-16	-5.06551E-14
	6340.74397	-8.12248E-8	-645.01423	-2.79228E-4	1577.102	-3.26565E-16	-1.6296E-13
	6335.04802	3.02087E-8	240.10584	1.03942E-4	1578.52	1.21236E-16	3.33644E-15
	6329.36229	2.55093E-7	2029.35732	8.78514E-4	1579.938	1.02192E-15	1.77645E-14
