PE UV       SUBTECH     SPECTRUM    ASCII       PEDS        4.00        
   -1
CG200-L-9.asc
11/01/06
15:57:13.00
11/01/06
15:57:13.00
Analyst

360.000000
1
Lambda 950
950N7030103
PerkinElmer UV WinLab 5.2.0.0646 / 1.61.00 Lambda 900

0
0
3350/servo 860.8/2
0
0
UV/VIS
1
1
1
RBeamAtt,SBeamAtt,uv/vis/nir detector
0
0
0
0
Program
Program
3350/servo 860.8/2
3350/0.2 860.8/0.2
3350/0.2 860.8/0.2
0
1
 
 
 
0
 
860.8
319.2
860.8
Front
100
 
S:100 R:100
 
0
0
0
 
0
 
 
 
0
 
 
0
0
0
0
0
 
 
 
 
0
0
#HDR
-1
-1
#GR
nm
A
1.0
0.0
1350.000000
-1.000000
991
8
2.870656
1.315079
#DATA
1350.000000	1.381010
1349.000000	1.388925
1348.000000	1.389692
1347.000000	1.389554
1346.000000	1.385858
1345.000000	1.382341
1344.000000	1.381410
1343.000000	1.381354
1342.000000	1.383420
1341.000000	1.386410
1340.000000	1.388513
1339.000000	1.390049
1338.000000	1.391126
1337.000000	1.390991
1336.000000	1.392234
1335.000000	1.394418
1334.000000	1.395420
1333.000000	1.396214
1332.000000	1.396665
1331.000000	1.397438
1330.000000	1.398578
1329.000000	1.400213
1328.000000	1.402576
1327.000000	1.403228
1326.000000	1.403756
1325.000000	1.405221
1324.000000	1.406027
1323.000000	1.407528
1322.000000	1.409079
1321.000000	1.410527
1320.000000	1.410167
1319.000000	1.410699
1318.000000	1.412021
1317.000000	1.412902
1316.000000	1.414346
1315.000000	1.416126
1314.000000	1.416030
1313.000000	1.415501
1312.000000	1.416967
1311.000000	1.419711
1310.000000	1.421292
1309.000000	1.421081
1308.000000	1.420758
1307.000000	1.421080
1306.000000	1.422180
1305.000000	1.422929
1304.000000	1.423820
1303.000000	1.423559
1302.000000	1.422652
1301.000000	1.422928
1300.000000	1.425228
1299.000000	1.426341
1298.000000	1.425450
1297.000000	1.427161
1296.000000	1.426988
1295.000000	1.425402
1294.000000	1.426164
1293.000000	1.428099
1292.000000	1.426428
1291.000000	1.424373
1290.000000	1.425341
1289.000000	1.426469
1288.000000	1.426744
1287.000000	1.424533
1286.000000	1.423675
1285.000000	1.424603
1284.000000	1.424277
1283.000000	1.423040
1282.000000	1.419620
1281.000000	1.418034
1280.000000	1.417868
1279.000000	1.417416
1278.000000	1.416915
1277.000000	1.414730
1276.000000	1.410978
1275.000000	1.409582
1274.000000	1.408977
1273.000000	1.408286
1272.000000	1.407457
1271.000000	1.406511
1270.000000	1.405194
1269.000000	1.402586
1268.000000	1.398132
1267.000000	1.395974
1266.000000	1.394880
1265.000000	1.393524
1264.000000	1.390574
1263.000000	1.385612
1262.000000	1.383222
1261.000000	1.382049
1260.000000	1.380505
1259.000000	1.378524
1258.000000	1.376042
1257.000000	1.372394
1256.000000	1.367576
1255.000000	1.364663
1254.000000	1.363221
1253.000000	1.361196
1252.000000	1.358980
1251.000000	1.356923
1250.000000	1.355179
1249.000000	1.353376
1248.000000	1.351548
1247.000000	1.350082
1246.000000	1.349791
1245.000000	1.350426
1244.000000	1.349548
1243.000000	1.348051
1242.000000	1.346842
1241.000000	1.347100
1240.000000	1.348208
1239.000000	1.348001
1238.000000	1.347224
1237.000000	1.348169
1236.000000	1.349915
1235.000000	1.350387
1234.000000	1.350152
1233.000000	1.350096
1232.000000	1.350466
1231.000000	1.352837
1230.000000	1.355872
1229.000000	1.357027
1228.000000	1.357715
1227.000000	1.358430
1226.000000	1.359687
1225.000000	1.361343
1224.000000	1.362932
1223.000000	1.364542
1222.000000	1.366086
1221.000000	1.367711
1220.000000	1.369550
1219.000000	1.371548
1218.000000	1.371567
1217.000000	1.371115
1216.000000	1.372639
1215.000000	1.374607
1214.000000	1.378344
1213.000000	1.382353
1212.000000	1.384261
1211.000000	1.385234
1210.000000	1.386215
1209.000000	1.387322
1208.000000	1.388257
1207.000000	1.391125
1206.000000	1.394386
1205.000000	1.395405
1204.000000	1.397818
1203.000000	1.400666
1202.000000	1.401613
1201.000000	1.404074
1200.000000	1.407075
1199.000000	1.408030
1198.000000	1.408643
1197.000000	1.409643
1196.000000	1.413075
1195.000000	1.416250
1194.000000	1.417779
1193.000000	1.419267
1192.000000	1.420340
1191.000000	1.421804
1190.000000	1.423936
1189.000000	1.424070
1188.000000	1.423969
1187.000000	1.426492
1186.000000	1.428897
1185.000000	1.429976
1184.000000	1.430652
1183.000000	1.430924
1182.000000	1.431191
1181.000000	1.431796
1180.000000	1.432191
1179.000000	1.433138
1178.000000	1.434261
1177.000000	1.434839
1176.000000	1.432742
1175.000000	1.431675
1174.000000	1.432946
1173.000000	1.434670
1172.000000	1.436255
1171.000000	1.437647
1170.000000	1.438977
1169.000000	1.440081
1168.000000	1.441138
1167.000000	1.442256
1166.000000	1.443387
1165.000000	1.443978
1164.000000	1.445120
1163.000000	1.446248
1162.000000	1.447292
1161.000000	1.445372
1160.000000	1.444266
1159.000000	1.445479
1158.000000	1.447835
1157.000000	1.446638
1156.000000	1.446238
1155.000000	1.445304
1154.000000	1.445126
1153.000000	1.444952
1152.000000	1.445513
1151.000000	1.445981
1150.000000	1.445037
1149.000000	1.443923
1148.000000	1.443383
1147.000000	1.442303
1146.000000	1.441136
1145.000000	1.439688
1144.000000	1.437536
1143.000000	1.435736
1142.000000	1.433018
1141.000000	1.430602
1140.000000	1.427531
1139.000000	1.423981
1138.000000	1.421895
1137.000000	1.419680
1136.000000	1.413995
1135.000000	1.408741
1134.000000	1.404574
1133.000000	1.403544
1132.000000	1.401504
1131.000000	1.396329
1130.000000	1.390456
1129.000000	1.387312
1128.000000	1.386061
1127.000000	1.380721
1126.000000	1.376506
1125.000000	1.374936
1124.000000	1.369517
1123.000000	1.365546
1122.000000	1.363341
1121.000000	1.361365
1120.000000	1.358875
1119.000000	1.356496
1118.000000	1.353844
1117.000000	1.350666
1116.000000	1.345555
1115.000000	1.341448
1114.000000	1.339310
1113.000000	1.337266
1112.000000	1.335169
1111.000000	1.332996
1110.000000	1.330541
1109.000000	1.328697
1108.000000	1.326946
1107.000000	1.325286
1106.000000	1.323942
1105.000000	1.322215
1104.000000	1.321773
1103.000000	1.317703
1102.000000	1.318364
1101.000000	1.317939
1100.000000	1.316958
1099.000000	1.316329
1098.000000	1.315985
1097.000000	1.315388
1096.000000	1.315079
1095.000000	1.317203
1094.000000	1.317833
1093.000000	1.317436
1092.000000	1.316930
1091.000000	1.316478
1090.000000	1.316292
1089.000000	1.316369
1088.000000	1.316243
1087.000000	1.316408
1086.000000	1.317191
1085.000000	1.317802
1084.000000	1.318396
1083.000000	1.318715
1082.000000	1.319589
1081.000000	1.320649
1080.000000	1.321298
1079.000000	1.324975
1078.000000	1.326841
1077.000000	1.326611
1076.000000	1.327403
1075.000000	1.327568
1074.000000	1.328164
1073.000000	1.328455
1072.000000	1.329548
1071.000000	1.330351
1070.000000	1.331231
1069.000000	1.334581
1068.000000	1.335634
1067.000000	1.335235
1066.000000	1.334741
1065.000000	1.334558
1064.000000	1.334840
1063.000000	1.335386
1062.000000	1.337740
1061.000000	1.338453
1060.000000	1.338581
1059.000000	1.338522
1058.000000	1.339296
1057.000000	1.342049
1056.000000	1.343163
1055.000000	1.342978
1054.000000	1.343727
1053.000000	1.346343
1052.000000	1.347540
1051.000000	1.347436
1050.000000	1.348332
1049.000000	1.351433
1048.000000	1.352402
1047.000000	1.352314
1046.000000	1.352748
1045.000000	1.355608
1044.000000	1.356392
1043.000000	1.356555
1042.000000	1.358790
1041.000000	1.359123
1040.000000	1.358288
1039.000000	1.357851
1038.000000	1.359710
1037.000000	1.359355
1036.000000	1.358855
1035.000000	1.359994
1034.000000	1.358906
1033.000000	1.357488
1032.000000	1.357309
1031.000000	1.357066
1030.000000	1.356504
1029.000000	1.354828
1028.000000	1.352853
1027.000000	1.352795
1026.000000	1.351848
1025.000000	1.350972
1024.000000	1.349350
1023.000000	1.347487
1022.000000	1.347053
1021.000000	1.345436
1020.000000	1.343950
1019.000000	1.343713
1018.000000	1.342606
1017.000000	1.341563
1016.000000	1.340267
1015.000000	1.339239
1014.000000	1.340000
1013.000000	1.340961
1012.000000	1.339704
1011.000000	1.338033
1010.000000	1.338103
1009.000000	1.337803
1008.000000	1.338139
1007.000000	1.337145
1006.000000	1.336228
1005.000000	1.336633
1004.000000	1.336023
1003.000000	1.336362
1002.000000	1.336768
1001.000000	1.336985
1000.000000	1.336079
999.000000	1.335116
998.000000	1.335487
997.000000	1.335733
996.000000	1.336005
995.000000	1.335346
994.000000	1.335400
993.000000	1.337284
992.000000	1.338645
991.000000	1.337716
990.000000	1.336327
989.000000	1.336815
988.000000	1.339296
987.000000	1.341022
986.000000	1.340560
985.000000	1.339436
984.000000	1.339677
983.000000	1.341892
982.000000	1.343238
981.000000	1.342589
980.000000	1.341625
979.000000	1.342034
978.000000	1.342979
977.000000	1.343661
976.000000	1.344152
975.000000	1.343350
974.000000	1.341894
973.000000	1.342226
972.000000	1.343184
971.000000	1.342848
970.000000	1.343111
969.000000	1.343946
968.000000	1.343426
967.000000	1.344104
966.000000	1.345308
965.000000	1.344941
964.000000	1.344334
963.000000	1.344928
962.000000	1.346069
961.000000	1.345992
960.000000	1.345457
959.000000	1.345285
958.000000	1.345446
957.000000	1.345669
956.000000	1.345816
955.000000	1.346357
954.000000	1.346785
953.000000	1.347139
952.000000	1.347571
951.000000	1.346105
950.000000	1.344432
949.000000	1.344317
948.000000	1.344701
947.000000	1.344950
946.000000	1.344733
945.000000	1.344410
944.000000	1.343856
943.000000	1.343480
942.000000	1.342657
941.000000	1.341859
940.000000	1.341372
939.000000	1.340842
938.000000	1.341887
937.000000	1.342851
936.000000	1.342238
935.000000	1.343010
934.000000	1.343472
933.000000	1.343058
932.000000	1.344108
931.000000	1.344644
930.000000	1.343766
929.000000	1.344728
928.000000	1.345318
927.000000	1.344584
926.000000	1.345790
925.000000	1.346537
924.000000	1.347629
923.000000	1.348188
922.000000	1.349395
921.000000	1.350021
920.000000	1.350661
919.000000	1.351225
918.000000	1.351773
917.000000	1.354285
916.000000	1.354770
915.000000	1.355394
914.000000	1.357107
913.000000	1.357708
912.000000	1.358749
911.000000	1.361398
910.000000	1.362779
909.000000	1.363711
908.000000	1.366187
907.000000	1.368330
906.000000	1.369013
905.000000	1.370365
904.000000	1.373128
903.000000	1.376525
902.000000	1.376957
901.000000	1.377744
900.000000	1.379822
899.000000	1.382744
898.000000	1.385921
897.000000	1.386873
896.000000	1.388110
895.000000	1.391682
894.000000	1.394561
893.000000	1.396982
892.000000	1.398536
891.000000	1.400264
890.000000	1.403583
889.000000	1.407909
888.000000	1.411118
887.000000	1.414015
886.000000	1.415021
885.000000	1.416411
884.000000	1.419842
883.000000	1.423471
882.000000	1.426887
881.000000	1.429419
880.000000	1.428780
879.000000	1.428265
878.000000	1.430141
877.000000	1.432271
876.000000	1.433945
875.000000	1.435469
874.000000	1.433736
873.000000	1.431417
872.000000	1.431011
871.000000	1.431011
870.000000	1.431689
869.000000	1.431950
868.000000	1.429731
867.000000	1.427532
866.000000	1.427164
865.000000	1.425838
864.000000	1.423475
863.000000	1.422003
862.000000	1.422382
861.000000	1.422691
860.000000	1.420693
859.000000	1.423417
858.000000	1.421888
857.000000	1.422632
856.000000	1.421740
855.000000	1.422727
854.000000	1.423329
853.000000	1.423459
852.000000	1.424396
851.000000	1.427189
850.000000	1.427666
849.000000	1.430143
848.000000	1.430815
847.000000	1.433361
846.000000	1.436252
845.000000	1.439862
844.000000	1.443133
843.000000	1.446632
842.000000	1.449911
841.000000	1.453598
840.000000	1.457884
839.000000	1.461204
838.000000	1.464728
837.000000	1.468849
836.000000	1.472286
835.000000	1.475336
834.000000	1.478724
833.000000	1.482275
832.000000	1.486211
831.000000	1.489770
830.000000	1.493661
829.000000	1.497139
828.000000	1.501368
827.000000	1.505700
826.000000	1.509322
825.000000	1.513078
824.000000	1.516280
823.000000	1.519769
822.000000	1.523294
821.000000	1.526431
820.000000	1.528267
819.000000	1.531682
818.000000	1.534237
817.000000	1.536518
816.000000	1.538303
815.000000	1.540260
814.000000	1.541688
813.000000	1.543579
812.000000	1.544565
811.000000	1.544964
810.000000	1.545869
809.000000	1.545647
808.000000	1.545327
807.000000	1.544760
806.000000	1.544684
805.000000	1.543887
804.000000	1.542546
803.000000	1.541287
802.000000	1.539736
801.000000	1.538376
800.000000	1.537300
799.000000	1.535046
798.000000	1.533491
797.000000	1.532087
796.000000	1.530949
795.000000	1.529290
794.000000	1.528021
793.000000	1.526673
792.000000	1.525546
791.000000	1.525273
790.000000	1.524562
789.000000	1.524050
788.000000	1.523931
787.000000	1.523693
786.000000	1.524623
785.000000	1.525164
784.000000	1.526061
783.000000	1.527408
782.000000	1.529435
781.000000	1.531158
780.000000	1.532651
779.000000	1.534475
778.000000	1.536654
777.000000	1.538592
776.000000	1.541535
775.000000	1.544090
774.000000	1.547049
773.000000	1.550493
772.000000	1.553528
771.000000	1.556769
770.000000	1.560216
769.000000	1.563117
768.000000	1.566447
767.000000	1.570105
766.000000	1.573924
765.000000	1.577642
764.000000	1.581244
763.000000	1.584312
762.000000	1.588085
761.000000	1.592542
760.000000	1.596784
759.000000	1.601281
758.000000	1.605896
757.000000	1.609773
756.000000	1.613967
755.000000	1.618658
754.000000	1.623161
753.000000	1.627635
752.000000	1.633033
751.000000	1.637511
750.000000	1.641925
749.000000	1.646470
748.000000	1.650667
747.000000	1.654530
746.000000	1.658254
745.000000	1.661984
744.000000	1.665440
743.000000	1.668431
742.000000	1.671277
741.000000	1.673631
740.000000	1.675204
739.000000	1.675811
738.000000	1.676596
737.000000	1.677512
736.000000	1.677789
735.000000	1.677470
734.000000	1.676634
733.000000	1.675044
732.000000	1.673764
731.000000	1.672343
730.000000	1.670340
729.000000	1.668045
728.000000	1.665004
727.000000	1.661519
726.000000	1.658400
725.000000	1.655309
724.000000	1.652058
723.000000	1.648602
722.000000	1.645184
721.000000	1.641775
720.000000	1.638732
719.000000	1.635859
718.000000	1.632839
717.000000	1.630160
716.000000	1.627486
715.000000	1.625522
714.000000	1.624199
713.000000	1.623433
712.000000	1.622675
711.000000	1.622290
710.000000	1.622162
709.000000	1.622022
708.000000	1.622234
707.000000	1.623187
706.000000	1.624102
705.000000	1.625515
704.000000	1.626573
703.000000	1.627764
702.000000	1.629364
701.000000	1.631455
700.000000	1.633435
699.000000	1.635114
698.000000	1.636257
697.000000	1.637658
696.000000	1.639589
695.000000	1.641785
694.000000	1.643097
693.000000	1.644969
692.000000	1.646264
691.000000	1.647569
690.000000	1.649398
689.000000	1.650756
688.000000	1.652597
687.000000	1.653572
686.000000	1.655066
685.000000	1.656621
684.000000	1.657674
683.000000	1.658771
682.000000	1.660089
681.000000	1.661364
680.000000	1.663149
679.000000	1.664391
678.000000	1.666113
677.000000	1.667861
676.000000	1.670072
675.000000	1.671822
674.000000	1.674239
673.000000	1.676913
672.000000	1.678961
671.000000	1.681367
670.000000	1.684239
669.000000	1.686907
668.000000	1.689847
667.000000	1.692240
666.000000	1.694613
665.000000	1.696109
664.000000	1.698073
663.000000	1.700197
662.000000	1.702015
661.000000	1.702916
660.000000	1.703932
659.000000	1.704556
658.000000	1.705148
657.000000	1.704569
656.000000	1.703847
655.000000	1.701985
654.000000	1.701035
653.000000	1.699347
652.000000	1.697377
651.000000	1.695242
650.000000	1.692267
649.000000	1.688402
648.000000	1.685157
647.000000	1.681904
646.000000	1.678839
645.000000	1.674590
644.000000	1.671772
643.000000	1.667455
642.000000	1.663205
641.000000	1.660197
640.000000	1.657336
639.000000	1.654263
638.000000	1.651767
637.000000	1.649147
636.000000	1.646751
635.000000	1.644502
634.000000	1.643843
633.000000	1.642879
632.000000	1.642745
631.000000	1.642122
630.000000	1.642261
629.000000	1.642597
628.000000	1.643474
627.000000	1.644421
626.000000	1.646161
625.000000	1.647797
624.000000	1.650201
623.000000	1.652644
622.000000	1.655111
621.000000	1.656843
620.000000	1.660093
619.000000	1.663164
618.000000	1.666002
617.000000	1.669035
616.000000	1.672539
615.000000	1.674872
614.000000	1.678811
613.000000	1.681378
612.000000	1.684329
611.000000	1.687415
610.000000	1.689993
609.000000	1.692606
608.000000	1.695094
607.000000	1.696527
606.000000	1.697568
605.000000	1.699340
604.000000	1.702135
603.000000	1.702651
602.000000	1.704685
601.000000	1.704760
600.000000	1.705589
599.000000	1.705829
598.000000	1.706037
597.000000	1.705426
596.000000	1.705043
595.000000	1.704102
594.000000	1.703844
593.000000	1.703573
592.000000	1.704093
591.000000	1.703051
590.000000	1.702905
589.000000	1.702437
588.000000	1.702170
587.000000	1.702523
586.000000	1.703208
585.000000	1.703618
584.000000	1.704541
583.000000	1.704401
582.000000	1.705710
581.000000	1.706937
580.000000	1.709451
579.000000	1.711551
578.000000	1.714720
577.000000	1.717578
576.000000	1.721061
575.000000	1.725477
574.000000	1.730393
573.000000	1.734786
572.000000	1.740456
571.000000	1.744287
570.000000	1.749259
569.000000	1.754108
568.000000	1.759586
567.000000	1.764041
566.000000	1.768178
565.000000	1.772232
564.000000	1.775909
563.000000	1.779769
562.000000	1.783814
561.000000	1.786907
560.000000	1.789724
559.000000	1.789613
558.000000	1.790794
557.000000	1.790783
556.000000	1.791104
555.000000	1.790655
554.000000	1.789981
553.000000	1.788664
552.000000	1.787080
551.000000	1.784023
550.000000	1.781450
549.000000	1.778957
548.000000	1.777871
547.000000	1.775196
546.000000	1.773907
545.000000	1.771660
544.000000	1.770100
543.000000	1.769413
542.000000	1.768737
541.000000	1.768132
540.000000	1.768480
539.000000	1.768481
538.000000	1.769713
537.000000	1.771327
536.000000	1.773891
535.000000	1.775938
534.000000	1.778837
533.000000	1.781932
532.000000	1.785547
531.000000	1.789922
530.000000	1.795010
529.000000	1.799484
528.000000	1.805288
527.000000	1.810162
526.000000	1.816317
525.000000	1.822422
524.000000	1.828953
523.000000	1.834983
522.000000	1.841204
521.000000	1.847078
520.000000	1.853270
519.000000	1.859617
518.000000	1.865567
517.000000	1.870537
516.000000	1.876418
515.000000	1.880327
514.000000	1.883842
513.000000	1.887402
512.000000	1.890343
511.000000	1.892865
510.000000	1.895608
509.000000	1.897296
508.000000	1.898135
507.000000	1.898831
506.000000	1.899810
505.000000	1.899368
504.000000	1.899457
503.000000	1.897387
502.000000	1.896340
501.000000	1.897066
500.000000	1.897278
499.000000	1.897439
498.000000	1.898273
497.000000	1.899059
496.000000	1.901158
495.000000	1.903405
494.000000	1.906628
493.000000	1.909660
492.000000	1.912964
491.000000	1.916268
490.000000	1.919694
489.000000	1.923316
488.000000	1.926599
487.000000	1.929706
486.000000	1.932472
485.000000	1.934148
484.000000	1.936145
483.000000	1.937946
482.000000	1.939716
481.000000	1.942121
480.000000	1.944601
479.000000	1.946193
478.000000	1.948380
477.000000	1.951758
476.000000	1.954819
475.000000	1.958347
474.000000	1.962525
473.000000	1.965758
472.000000	1.969467
471.000000	1.974992
470.000000	1.981565
469.000000	1.987955
468.000000	1.993644
467.000000	1.999967
466.000000	2.006707
465.000000	2.013740
464.000000	2.020278
463.000000	2.027196
462.000000	2.033486
461.000000	2.037716
460.000000	2.045856
459.000000	2.051954
458.000000	2.055166
457.000000	2.060960
456.000000	2.066277
455.000000	2.070297
454.000000	2.073970
453.000000	2.079488
452.000000	2.084592
451.000000	2.089394
450.000000	2.093530
449.000000	2.096166
448.000000	2.098201
447.000000	2.101850
446.000000	2.104051
445.000000	2.107054
444.000000	2.108650
443.000000	2.110508
442.000000	2.112193
441.000000	2.112827
440.000000	2.115593
439.000000	2.119481
438.000000	2.122843
437.000000	2.125495
436.000000	2.129476
435.000000	2.136769
434.000000	2.141327
433.000000	2.147723
432.000000	2.153408
431.000000	2.160288
430.000000	2.167164
429.000000	2.174669
428.000000	2.184791
427.000000	2.194991
426.000000	2.205709
425.000000	2.217607
424.000000	2.228973
423.000000	2.242519
422.000000	2.252857
421.000000	2.265213
420.000000	2.276095
419.000000	2.285967
418.000000	2.297390
417.000000	2.307770
416.000000	2.316197
415.000000	2.324007
414.000000	2.327446
413.000000	2.331500
412.000000	2.333773
411.000000	2.339416
410.000000	2.340907
409.000000	2.343577
408.000000	2.344406
407.000000	2.344220
406.000000	2.348863
405.000000	2.356365
404.000000	2.359400
403.000000	2.366916
402.000000	2.372797
401.000000	2.381066
400.000000	2.391383
399.000000	2.400736
398.000000	2.409445
397.000000	2.424373
396.000000	2.437492
395.000000	2.451362
394.000000	2.466263
393.000000	2.486540
392.000000	2.500048
391.000000	2.516102
390.000000	2.530261
389.000000	2.549295
388.000000	2.565524
387.000000	2.583518
386.000000	2.599989
385.000000	2.616808
384.000000	2.629426
383.000000	2.646323
382.000000	2.655284
381.000000	2.669362
380.000000	2.671062
379.000000	2.678168
378.000000	2.692406
377.000000	2.694010
376.000000	2.693455
375.000000	2.698940
374.000000	2.698255
373.000000	2.704653
372.000000	2.719075
371.000000	2.724975
370.000000	2.728509
369.000000	2.743998
368.000000	2.753260
367.000000	2.769496
366.000000	2.782655
365.000000	2.797930
364.000000	2.810441
363.000000	2.832619
362.000000	2.843420
361.000000	2.857930
360.000000	2.870656
