LASERINDEX	WAVENUMBER	SPWNPOWER	SpWNQuant	SpQuantNorm	Wavelength	SpecWL	FluAbsRatio
Integer Laser Wavelength	cm^-1	nW/cm-1	photon/s/cm^-1	Norm intensity	nm	W/nm	Experimental Ratio
532	11340.38471	1.83206E-6	8134.55347	0.00502	881.8043	2.35611E-14	6.18007E-14
	11323.51253	2.00252E-6	8904.64433	0.0055	883.1182	2.56767E-14	6.78117E-14
	11306.68664	2.30045E-6	10244.68971	0.00632	884.4324	2.94093E-14	7.82895E-14
	11289.90941	2.33243E-6	10402.52228	0.00642	885.7467	2.97296E-14	8.0069E-14
	11273.17808	2.51159E-6	11218.17667	0.00693	887.0613	3.19184E-14	8.7311E-14
	11256.495	2.67107E-6	11948.19471	0.00738	888.376	3.38447E-14	9.28786E-14
	11239.85743	2.32084E-6	10396.9144	0.00642	889.691	2.93201E-14	7.99685E-14
	11223.26646	2.23406E-6	10022.97498	0.00619	891.0062	2.81406E-14	7.68397E-14
	11206.72314	2.29498E-6	10311.50091	0.00637	892.3215	2.88229E-14	7.91473E-14
	11190.22476	2.07444E-6	9334.30846	0.00576	893.6371	2.59763E-14	7.17955E-14
	11173.77239	2.12459E-6	9574.07558	0.00591	894.9529	2.65262E-14	7.38741E-14
	11157.36583	2.13478E-6	9634.14293	0.00595	896.2689	2.65752E-14	7.41782E-14
	11141.00614	1.78167E-6	8052.38009	0.00497	897.585	2.21145E-14	6.15769E-14
	11124.69065	1.57733E-6	7139.31167	0.00441	898.9014	1.95209E-14	5.44222E-14
	11108.4204	1.62602E-6	7370.45653	0.00455	900.218	2.00646E-14	5.62711E-14
	11092.19399	1.68129E-6	7632.11853	0.00471	901.5349	2.0686E-14	5.82679E-14
	11076.01491	1.46451E-6	6657.76159	0.00411	902.8518	1.79663E-14	5.07849E-14
	11059.87807	1.24997E-6	5690.77218	0.00351	904.1691	1.52898E-14	4.34084E-14
	11043.78696	1.37511E-6	6269.6242	0.00387	905.4865	1.67716E-14	4.77591E-14
	11027.74017	1.51041E-6	6896.52386	0.00426	906.8041	1.83683E-14	5.23884E-14
	11011.73752	1.54655E-6	7071.80189	0.00437	908.1219	1.87533E-14	5.34609E-14
	10995.77883	1.46785E-6	6721.66122	0.00415	909.4399	1.77474E-14	5.0685E-14
	10979.86271	1.31738E-6	6041.37735	0.00373	910.7582	1.5882E-14	4.55677E-14
	10963.9914	1.35171E-6	6207.78214	0.00383	912.0766	1.62488E-14	4.68206E-14
	10948.16231	1.4773E-6	6794.33442	0.00419	913.3953	1.77072E-14	5.12697E-14
	10932.37767	1.38425E-6	6375.6073	0.00394	914.7141	1.65442E-14	4.80228E-14
	10916.6349	1.12453E-6	5186.83622	0.0032	916.0332	1.34013E-14	3.89919E-14
	10900.93503	1.14726E-6	5299.29684	0.00327	917.3525	1.36329E-14	3.98132E-14
	10885.27906	1.36074E-6	6294.41991	0.00389	918.6719	1.61233E-14	4.71249E-14
	10869.66446	1.42453E-6	6598.98596	0.00407	919.9916	1.68308E-14	4.91003E-14
	10854.09224	1.49488E-6	6934.79732	0.00428	921.3115	1.76114E-14	5.12825E-14
	10838.56339	1.45859E-6	6776.14545	0.00418	922.6315	1.71347E-14	4.99231E-14
	10823.0754	1.42467E-6	6628.04404	0.00409	923.9518	1.66885E-14	4.86246E-14
	10807.62928	1.58156E-6	7368.42599	0.00455	925.2723	1.84733E-14	5.36994E-14
	10792.22485	1.66318E-6	7759.75117	0.00479	926.593	1.93714E-14	5.63056E-14
	10776.86195	1.60557E-6	7501.66655	0.00463	927.9139	1.86472E-14	5.41821E-14
	10761.54041	1.37009E-6	6410.56359	0.00396	929.235	1.58671E-14	4.59608E-14
	10746.26006	1.35596E-6	6353.44312	0.00392	930.5563	1.56589E-14	4.52906E-14
	10731.01959	1.64191E-6	7704.2471	0.00476	931.8779	1.89074E-14	5.46423E-14
	10715.82114	1.61426E-6	7585.21455	0.00468	933.1996	1.85363E-14	5.35184E-14
	10700.66339	1.39808E-6	6578.72093	0.00406	934.5215	1.60086E-14	4.62158E-14
	10685.54617	1.27155E-6	5991.81958	0.0037	935.8436	1.45187E-14	4.1853E-14
	10670.4682	1.16347E-6	5490.23371	0.00339	937.166	1.32471E-14	3.81003E-14
	10655.43158	1.27575E-6	6028.58806	0.00372	938.4885	1.44846E-14	4.15085E-14
	10640.43388	1.47251E-6	6968.19401	0.0043	939.8113	1.66716E-14	4.75757E-14
	10625.47722	1.41022E-6	6682.83295	0.00413	941.1342	1.59215E-14	4.53541E-14
	10610.55916	1.32048E-6	6266.36855	0.00387	942.4574	1.48665E-14	4.22807E-14
	10595.68069	1.27325E-6	6050.69476	0.00374	943.7808	1.42946E-14	4.05125E-14
	10580.84277	1.27583E-6	6071.44214	0.00375	945.1043	1.42834E-14	4.03232E-14
	10566.043	1.53989E-6	7338.32503	0.00453	946.4281	1.71915E-14	4.83684E-14
	10551.28234	1.94709E-6	9291.8294	0.00574	947.7521	2.16769E-14	6.06757E-14
	10536.56176	2.15163E-6	10282.26993	0.00635	949.0762	2.38872E-14	6.64168E-14
	10521.87888	2.13991E-6	10240.52087	0.00632	950.4006	2.36909E-14	6.54782E-14
	10507.23465	2.23109E-6	10691.77481	0.0066	951.7252	2.46317E-14	6.76965E-14
	10492.62893	2.4635E-6	11821.96432	0.0073	953.05	2.7122E-14	7.41131E-14
	10478.06046	2.83933E-6	13644.44625	0.00842	954.3751	3.11729E-14	8.48548E-14
	10463.5313	3.35266E-6	16133.64965	0.00996	955.7003	3.67068E-14	9.9531E-14
	10449.04128	3.94684E-6	19019.24629	0.01174	957.0256	4.30925E-14	1.1613E-13
	10434.58698	4.67053E-6	22537.80308	0.01391	958.3513	5.0853E-14	1.3634E-13
	10420.17153	5.29604E-6	25591.60189	0.0158	959.6771	5.75044E-14	1.53379E-13
	10405.7937	5.64565E-6	27318.6867	0.01687	961.0031	6.11314E-14	1.62395E-13
	10391.45332	5.95125E-6	28837.18786	0.0178	962.3293	6.4263E-14	1.7032E-13
	10377.14919	6.24401E-6	30297.44231	0.0187	963.6558	6.72387E-14	1.77471E-13
	10362.8833	6.55078E-6	31829.73503	0.01965	964.9824	7.03484E-14	1.84911E-13
	10348.65338	6.98833E-6	34002.46468	0.02099	966.3093	7.48413E-14	1.96003E-13
	10334.46034	7.31864E-6	35658.51844	0.02201	967.6364	7.81639E-14	2.03864E-13
	10320.30512	7.52752E-6	36726.5409	0.02267	968.9636	8.01746E-14	2.0805E-13
	10306.18543	8.11758E-6	39659.69621	0.02448	970.2911	8.62229E-14	2.21875E-13
	10292.10327	9.09823E-6	44511.65506	0.02748	971.6187	9.63752E-14	2.45859E-13
	10278.05637	9.98698E-6	48926.45626	0.0302	972.9466	1.05501E-13	2.67673E-13
	10264.04565	1.07771E-5	52869.55457	0.03264	974.2747	1.13538E-13	2.86591E-13
	10250.07098	1.14328E-5	56162.58643	0.03467	975.603	1.20118E-13	3.01761E-13
	10236.13222	1.2126E-5	59648.98704	0.03682	976.9315	1.27054E-13	3.17971E-13
	10222.23026	1.31039E-5	64546.9614	0.03985	978.2601	1.36928E-13	3.41179E-13
	10208.36185	1.38718E-5	68422.19101	0.04224	979.5891	1.44559E-13	3.58927E-13
	10194.52998	1.44939E-5	71587.5703	0.04419	980.9182	1.50632E-13	3.72996E-13
	10180.73347	1.53474E-5	75905.90295	0.04686	982.2475	1.59071E-13	3.93179E-13
	10166.97218	1.5681E-5	77661.16227	0.04794	983.577	1.62091E-13	4.00515E-13
	10153.24599	1.52406E-5	75581.88378	0.04666	984.9067	1.57113E-13	3.87893E-13
	10139.55475	1.49603E-5	74291.88054	0.04586	986.2366	1.53807E-13	3.7888E-13
	10125.89731	1.49924E-5	74551.86288	0.04602	987.5668	1.53723E-13	3.77613E-13
	10112.27558	1.48821E-5	74102.99375	0.04575	988.8971	1.52181E-13	3.7379E-13
	10098.68842	1.47564E-5	73575.75674	0.04542	990.2276	1.5049E-13	3.71134E-13
	10085.13569	1.4346E-5	71625.83473	0.04422	991.5583	1.45913E-13	3.61685E-13
	10071.61624	1.35424E-5	67704.6996	0.0418	992.8893	1.37371E-13	3.41558E-13
	10058.13097	1.31453E-5	65807.07861	0.04063	994.2205	1.32985E-13	3.31091E-13
	10044.68075	1.30101E-5	65217.62556	0.04026	995.5518	1.31266E-13	3.27604E-13
	10031.26344	1.27317E-5	63907.53025	0.03945	996.8834	1.28114E-13	3.19494E-13
	10017.88092	1.24519E-5	62586.35527	0.03864	998.2151	1.24964E-13	3.10118E-13
	10004.53105	1.18502E-5	59641.72348	0.03682	999.5471	1.1861E-13	2.94482E-13
	9991.21772	1.10366E-5	55620.66098	0.03434	1000.879	1.10172E-13	2.74388E-13
	9977.92882	1.06177E-5	53581.15306	0.03308	1002.212	1.05709E-13	2.63252E-13
	9964.68516	1.04934E-5	53024.02028	0.03273	1003.544	1.04194E-13	2.59796E-13
	9951.4667	1.02862E-5	52046.0305	0.03213	1004.877	1.01866E-13	2.54313E-13
	9938.28326	1.00148E-5	50740.09256	0.03132	1006.21	9.89156E-14	2.46969E-13
	9925.13471	9.81275E-6	49782.31666	0.03073	1007.543	9.66637E-14	2.41957E-13
	9912.01108	9.65E-6	49021.44079	0.03026	1008.877	9.48092E-14	2.37639E-13
	9898.93191	9.52969E-6	48474.25198	0.02993	1010.21	9.33803E-14	2.33629E-13
	9885.87743	9.3406E-6	47575.18065	0.02937	1011.544	9.12862E-14	2.2831E-13
	9872.85734	9.17146E-6	46775.25352	0.02888	1012.878	8.93972E-14	2.2348E-13
	9859.87151	9.36184E-6	47809.1194	0.02951	1014.212	9.10131E-14	2.26575E-13
	9846.91009	9.41739E-6	48156.08894	0.02973	1015.547	9.13125E-14	2.26407E-13
	9833.99237	9.1679E-6	46941.89437	0.02898	1016.881	8.86604E-14	2.18994E-13
	9821.09886	9.37462E-6	48063.37711	0.02967	1018.216	9.04219E-14	2.22011E-13
	9808.23912	1.00483E-5	51585.11372	0.03185	1019.551	9.66667E-14	2.35922E-13
	9795.40341	1.07048E-5	55027.18363	0.03397	1020.887	1.02713E-13	2.4875E-13
	9782.61082	1.12737E-5	58027.1483	0.03582	1022.222	1.07888E-13	2.58479E-13
	9769.84206	1.20053E-5	61873.93783	0.0382	1023.558	1.14591E-13	2.71429E-13
	9757.10659	1.29448E-5	66803.04969	0.04124	1024.894	1.23236E-13	2.88911E-13
	9744.40428	1.40194E-5	72442.652	0.04472	1026.23	1.33119E-13	3.09681E-13
	9731.73499	1.51726E-5	78503.67926	0.04846	1027.566	1.43694E-13	3.32716E-13
	9719.09861	1.63275E-5	84589.03164	0.05222	1028.902	1.54231E-13	3.55635E-13
	9706.48558	1.75045E-5	90804.91629	0.05606	1030.239	1.64921E-13	3.78336E-13
	9693.90525	1.81666E-5	94361.44203	0.05825	1031.576	1.70714E-13	3.90004E-13
	9681.35748	1.81194E-5	94238.68791	0.05818	1032.913	1.69831E-13	3.87393E-13
	9668.84216	1.81431E-5	94483.94365	0.05833	1034.25	1.69614E-13	3.87008E-13
	9656.34982	1.84691E-5	96305.88466	0.05945	1035.588	1.72215E-13	3.93209E-13
	9643.88973	1.84623E-5	96395.1911	0.05951	1036.926	1.71708E-13	3.93198E-13
	9631.46175	1.7966E-5	93924.60796	0.05798	1038.264	1.66661E-13	3.83542E-13
	9619.06576	1.72208E-5	90145.12609	0.05565	1039.602	1.59338E-13	3.6809E-13
	9606.70164	1.62727E-5	85291.72413	0.05265	1040.94	1.50179E-13	3.47943E-13
	9594.36005	1.55561E-5	81640.41069	0.0504	1042.279	1.43197E-13	3.32791E-13
	9582.05932	1.52496E-5	80134.51047	0.04947	1043.617	1.40015E-13	3.26707E-13
	9569.78093	1.4888E-5	78334.94413	0.04836	1044.956	1.36345E-13	3.19818E-13
	9557.53397	1.42299E-5	74968.25113	0.04628	1046.295	1.29985E-13	3.06609E-13
	9545.3092	1.33819E-5	70590.67878	0.04358	1047.635	1.21926E-13	2.88628E-13
	9533.12475	1.25886E-5	66490.96601	0.04105	1048.974	1.14406E-13	2.71136E-13
	9520.9623	1.19838E-5	63377.44902	0.03913	1050.314	1.08632E-13	2.5739E-13
	9508.83085	1.15954E-5	61401.31519	0.03791	1051.654	1.04843E-13	2.48366E-13
	9496.73028	1.14303E-5	60604.35563	0.03741	1052.994	1.03087E-13	2.44931E-13
	9484.65146	1.11874E-5	59392.24201	0.03667	1054.335	1.00641E-13	2.4004E-13
	9472.61231	1.05442E-5	56048.63308	0.0346	1055.675	9.46136E-14	2.26093E-13
	9460.59473	9.79544E-6	52134.64148	0.03218	1057.016	8.7672E-14	2.09764E-13
	9448.60761	9.44451E-6	50330.61758	0.03107	1058.357	8.4317E-14	2.02153E-13
	9436.65082	9.25848E-6	49401.76926	0.0305	1059.698	8.24471E-14	1.98452E-13
	9424.71537	9.03881E-6	48290.73436	0.02981	1061.04	8.02875E-14	1.93605E-13
	9412.81894	9.03893E-6	48352.3991	0.02985	1062.381	8.0086E-14	1.92817E-13
	9400.94367	8.94785E-6	47925.64367	0.02959	1063.723	7.90791E-14	1.90149E-13
	9389.09832	8.65422E-6	46411.43359	0.02865	1065.065	7.62915E-14	1.83428E-13
	9377.28278	8.37911E-6	44992.67451	0.02778	1066.407	7.36804E-14	1.7773E-13
	9365.48818	8.06121E-6	43340.16283	0.02676	1067.75	7.07068E-14	1.71153E-13
	9353.73195	7.87402E-6	42386.96056	0.02617	1069.092	6.88916E-14	1.66739E-13
	9341.99648	7.81736E-6	42134.80335	0.02601	1070.435	6.82243E-14	1.65425E-13
	9330.29041	7.77802E-6	41975.3832	0.02591	1071.778	6.7711E-14	1.64899E-13
	9318.61365	7.61042E-6	41122.38001	0.02539	1073.121	6.60863E-14	1.61199E-13
	9306.95742	7.31083E-6	39553.00543	0.02442	1074.465	6.3326E-14	1.54442E-13
	9295.3303	7.25617E-6	39306.42156	0.02427	1075.809	6.26956E-14	1.53152E-13
	9283.74083	7.26992E-6	39430.05479	0.02434	1077.152	6.26579E-14	1.53376E-13
	9272.17162	7.14886E-6	38821.83567	0.02397	1078.496	6.1461E-14	1.50574E-13
	9260.62263	6.93006E-6	37680.55545	0.02326	1079.841	5.94316E-14	1.45699E-13
	9249.11093	6.62769E-6	36081.34863	0.02227	1081.185	5.66972E-14	1.39063E-13
	9237.61928	6.59738E-6	35961.01794	0.0222	1082.53	5.62978E-14	1.38019E-13
	9226.15615	6.76142E-6	36900.97669	0.02278	1083.875	5.75545E-14	1.40876E-13
	9214.72144	6.52515E-6	35655.68138	0.02201	1085.22	5.54057E-14	1.35349E-13
	9203.31503	6.07755E-6	33251.01153	0.02053	1086.565	5.14774E-14	1.25618E-13
	9191.92838	6.08608E-6	33338.9514	0.02058	1087.911	5.14223E-14	1.25397E-13
	9180.5783	6.3245E-6	34687.78697	0.02141	1089.256	5.33048E-14	1.29613E-13
	9169.24781	6.30356E-6	34615.66728	0.02137	1090.602	5.29972E-14	1.28253E-13
	9157.94525	6.26628E-6	34453.41913	0.02127	1091.948	5.2554E-14	1.26617E-13
	9146.66215	6.39689E-6	35214.93942	0.02174	1093.295	5.35173E-14	1.28363E-13
	9135.41517	6.37691E-6	35148.16253	0.0217	1094.641	5.3219E-14	1.26849E-13
	9124.18749	6.18905E-6	34154.71173	0.02109	1095.988	5.15243E-14	1.21918E-13
	9112.98737	6.09652E-6	33685.42403	0.0208	1097.335	5.06295E-14	1.19081E-13
	9101.81472	6.356E-6	35162.25548	0.02171	1098.682	5.2655E-14	1.2291E-13
	9090.66943	6.88891E-6	38157.09712	0.02356	1100.029	5.69301E-14	1.31703E-13
	9079.54315	7.21676E-6	40022.04208	0.02471	1101.377	5.94936E-14	1.36567E-13
	9068.44408	7.27746E-6	40408.02746	0.02495	1102.725	5.98474E-14	1.36067E-13
	9057.37211	7.49495E-6	41666.51626	0.02572	1104.073	6.14856E-14	1.38127E-13
	9046.32715	8.173E-6	45491.48026	0.02808	1105.421	6.68846E-14	1.48373E-13
	9035.30908	8.86428E-6	49399.36749	0.0305	1106.769	7.23652E-14	1.58582E-13
	9024.30969	9.15303E-6	51070.66384	0.03153	1108.118	7.45406E-14	1.61381E-13
	9013.33703	9.62264E-6	53756.29108	0.03319	1109.467	7.81745E-14	1.67038E-13
	9002.39104	1.05921E-5	59243.88426	0.03657	1110.816	8.58413E-14	1.80833E-13
	8991.47159	1.15064E-5	64436.36593	0.03978	1112.165	9.30256E-14	1.92853E-13
	8980.5786	1.2188E-5	68335.74135	0.04219	1113.514	9.8297E-14	2.00732E-13
	8969.70393	1.29129E-5	72487.79242	0.04475	1114.864	1.03891E-13	2.097E-13
	8958.85556	1.37865E-5	77486.02492	0.04784	1116.214	1.10652E-13	2.20606E-13
	8948.0334	1.47466E-5	82982.22617	0.05123	1117.564	1.18072E-13	2.31945E-13
	8937.23736	1.55377E-5	87539.30815	0.05404	1118.914	1.24106E-13	2.40558E-13
	8926.46733	1.59015E-5	89697.42511	0.05537	1120.264	1.26706E-13	2.43172E-13
	8915.71529	1.59462E-5	90057.71972	0.0556	1121.615	1.26756E-13	2.41254E-13
	8904.98911	1.61728E-5	91447.57319	0.05645	1122.966	1.28248E-13	2.41768E-13
	8894.28871	1.65423E-5	93649.71467	0.05781	1124.317	1.30864E-13	2.44084E-13
	8883.614	1.65261E-5	93670.0043	0.05783	1125.668	1.30421E-13	2.40718E-13
	8872.957	1.62605E-5	92275.53261	0.05697	1127.02	1.28018E-13	2.34333E-13
	8862.3334	1.60812E-5	91367.58609	0.05641	1128.371	1.26304E-13	2.30128E-13
	8851.72737	1.60122E-5	91084.47759	0.05623	1129.723	1.25461E-13	2.27604E-13
	8841.1467	1.59186E-5	90660.3851	0.05597	1131.075	1.24429E-13	2.24659E-13
	8830.59129	1.56511E-5	89243.48267	0.05509	1132.427	1.22046E-13	2.19622E-13
	8820.05327	1.5354E-5	87653.60106	0.05411	1133.78	1.19444E-13	2.14003E-13
	8809.54038	1.50588E-5	86071.00251	0.05314	1135.133	1.16868E-13	2.08019E-13
	8799.06026	1.44761E-5	82839.07077	0.05114	1136.485	1.12079E-13	1.98898E-13
	8788.5896	1.3734E-5	78686.32763	0.04858	1137.839	1.06081E-13	1.88232E-13
	8778.15153	1.33127E-5	76363.30904	0.04714	1139.192	1.02582E-13	1.81503E-13
	8767.73823	1.30709E-5	75065.17765	0.04634	1140.545	1.0048E-13	1.7705E-13
	8757.34194	1.27225E-5	73150.8748	0.04516	1141.899	9.75699E-14	1.71375E-13
	8746.97027	1.24189E-5	71490.2876	0.04413	1143.253	9.50165E-14	1.66807E-13
	8736.62314	1.20258E-5	69309.13817	0.04279	1144.607	9.17911E-14	1.60822E-13
	8726.30046	1.1352E-5	65503.4797	0.04044	1145.961	8.64439E-14	1.50685E-13
	8715.99455	1.07243E-5	61954.56031	0.03825	1147.316	8.14711E-14	1.41606E-13
	8705.71295	1.03404E-5	59806.96246	0.03692	1148.671	7.83689E-14	1.35819E-13
	8695.45558	1.00009E-5	57911.86228	0.03575	1150.026	7.56178E-14	1.30556E-13
	8685.22235	9.64982E-6	55944.73847	0.03454	1151.381	7.27916E-14	1.25463E-13
	8675.01319	9.28335E-6	53883.46608	0.03326	1152.736	6.98627E-14	1.20679E-13
	8664.82048	8.8637E-6	51508.18169	0.0318	1154.092	6.65479E-14	1.15346E-13
	8654.65919	8.55943E-6	49798.42823	0.03074	1155.447	6.41128E-14	1.11319E-13
	8644.51423	8.41466E-6	49013.59987	0.03026	1156.803	6.28807E-14	1.09516E-13
	8634.39303	8.30956E-6	48458.17891	0.02992	1158.159	6.19501E-14	1.08323E-13
	8624.28807	8.15744E-6	47626.79147	0.0294	1159.516	6.06737E-14	1.06168E-13
	8614.21414	7.88213E-6	46073.24476	0.02844	1160.872	5.84891E-14	1.02567E-13
	8604.15632	7.57066E-6	44304.3596	0.02735	1162.229	5.60468E-14	9.89573E-14
	8594.12196	7.37707E-6	43221.85132	0.02668	1163.586	5.44863E-14	9.66897E-14
	8584.11098	7.16504E-6	42028.51583	0.02595	1164.943	5.2797E-14	9.39161E-14
	8574.11594	6.94758E-6	40800.43835	0.02519	1166.301	5.10754E-14	9.12076E-14
	8564.15149	6.9189E-6	40679.30932	0.02511	1167.658	5.07465E-14	9.10822E-14
	8554.20285	6.77242E-6	39864.38263	0.02461	1169.016	4.95568E-14	8.93138E-14
	8544.2773	6.43055E-6	37896.00118	0.02339	1170.374	4.6946E-14	8.50139E-14
	8534.37475	6.24712E-6	36857.73194	0.02275	1171.732	4.55012E-14	8.29079E-14
	8524.48787	6.27861E-6	37086.50516	0.0229	1173.091	4.56247E-14	8.37211E-14
	8514.63112	6.449E-6	38137.04946	0.02354	1174.449	4.67545E-14	8.63628E-14
	8504.7899	6.58372E-6	38978.81459	0.02406	1175.808	4.7621E-14	8.82836E-14
	8494.9714	6.51233E-6	38600.69016	0.02383	1177.167	4.69959E-14	8.75877E-14
	8485.17555	6.44593E-6	38251.23209	0.02361	1178.526	4.64095E-14	8.73565E-14
	8475.39508	6.46501E-6	38408.72512	0.02371	1179.886	4.64397E-14	8.81415E-14
	8465.63713	6.41695E-6	38167.12689	0.02356	1181.246	4.59883E-14	8.76328E-14
	8455.90878	6.39825E-6	38099.73368	0.02352	1182.605	4.5749E-14	8.75309E-14
	8446.18849	6.48497E-6	38660.55032	0.02387	1183.966	4.62626E-14	8.91001E-14
	8436.49764	6.38824E-6	38127.61714	0.02354	1185.326	4.5468E-14	8.82546E-14
	8426.829	6.05677E-6	36190.74745	0.02234	1186.686	4.301E-14	8.41982E-14
	8417.17541	5.80935E-6	34752.16884	0.02145	1188.047	4.11586E-14	8.13543E-14
	8407.54392	5.473E-6	32777.56666	0.02024	1189.408	3.86869E-14	7.71335E-14
	8397.93444	5.27687E-6	31639.11648	0.01953	1190.769	3.72153E-14	7.47032E-14
	8388.34691	5.59958E-6	33612.42973	0.02075	1192.13	3.94011E-14	7.97942E-14
	8378.77422	5.69592E-6	34229.78907	0.02113	1193.492	3.99876E-14	8.19116E-14
	8369.23036	5.31032E-6	31948.88869	0.01972	1194.853	3.71956E-14	7.69445E-14
	8359.70122	5.10051E-6	30721.55919	0.01897	1196.215	3.56447E-14	7.41662E-14
	8350.19377	5.17702E-6	31217.90626	0.01927	1197.577	3.60971E-14	7.54906E-14
	8340.70095	5.19011E-6	31332.4694	0.01934	1198.94	3.61062E-14	7.59976E-14
	8331.23664	5.06828E-6	30631.74672	0.01891	1200.302	3.51787E-14	7.44719E-14
	8321.78685	4.94662E-6	29930.39787	0.01848	1201.665	3.42564E-14	7.31667E-14
	8312.35848	4.84811E-6	29367.65773	0.01813	1203.028	3.34982E-14	7.23811E-14
	8302.95145	4.87674E-6	29574.53115	0.01826	1204.391	3.36198E-14	7.3403E-14
	8293.56569	5.01862E-6	30469.36798	0.01881	1205.754	3.45197E-14	7.60335E-14
	8284.19425	4.94299E-6	30044.16797	0.01855	1207.118	3.39227E-14	7.51487E-14
	8274.84398	4.76896E-6	29019.12249	0.01791	1208.482	3.26545E-14	7.27723E-14
	8265.51478	4.70962E-6	28690.38259	0.01771	1209.846	3.21755E-14	7.22578E-14
	8256.2066	4.67258E-6	28496.83336	0.01759	1211.21	3.18506E-14	7.21032E-14
	8246.91936	4.64255E-6	28345.60103	0.0175	1212.574	3.15748E-14	7.20023E-14
	8237.64621	4.48835E-6	27434.98048	0.01694	1213.939	3.04574E-14	6.97366E-14
	8228.39388	4.15412E-6	25420.55442	0.01569	1215.304	2.81261E-14	6.4746E-14
	8219.16232	3.98946E-6	24440.31363	0.01509	1216.669	2.69506E-14	6.26517E-14
	8209.95145	3.98419E-6	24435.46345	0.01509	1218.034	2.68548E-14	6.29634E-14
	8200.76119	3.80498E-6	23362.46649	0.01442	1219.399	2.55894E-14	6.03218E-14
	8191.58478	3.65999E-6	22497.43466	0.01389	1220.765	2.45593E-14	5.82584E-14
	8182.43558	3.70875E-6	22822.60119	0.01409	1222.13	2.48309E-14	5.93224E-14
	8173.30012	3.91379E-6	24111.33956	0.01488	1223.496	2.61453E-14	6.27715E-14
	8164.17836	4.0831E-6	25182.47156	0.01555	1224.863	2.72154E-14	6.56475E-14
	8155.08359	4.06308E-6	25086.9187	0.01549	1226.229	2.70216E-14	6.5627E-14
	8146.00243	3.97068E-6	24543.74431	0.01515	1227.596	2.63484E-14	6.45477E-14
	8136.94147	3.807E-6	23558.24615	0.01454	1228.963	2.52061E-14	6.21648E-14
	8127.90064	3.79131E-6	23487.23383	0.0145	1230.33	2.50465E-14	6.2028E-14
	8118.87989	4.01988E-6	24930.87349	0.01539	1231.697	2.64975E-14	6.60767E-14
	8109.87913	4.0599E-6	25207.05564	0.01556	1233.064	2.6702E-14	6.68897E-14
	8100.89175	3.72773E-6	23170.32757	0.0143	1234.432	2.4463E-14	6.12655E-14
	8091.92426	3.43795E-6	21392.85935	0.01321	1235.8	2.25115E-14	5.64821E-14
	8082.9766	3.44152E-6	21438.77696	0.01324	1237.168	2.2485E-14	5.65866E-14
	8074.04872	3.47727E-6	21685.41098	0.01339	1238.536	2.26684E-14	5.71642E-14
	8065.13402	3.50731E-6	21896.94995	0.01352	1239.905	2.28138E-14	5.76197E-14
	8056.24548	3.63566E-6	22723.30142	0.01403	1241.273	2.35966E-14	5.98115E-14
	8047.37004	3.69912E-6	23145.41869	0.01429	1242.642	2.39556E-14	6.1066E-14
	8038.51413	3.81595E-6	23902.76613	0.01476	1244.011	2.46578E-14	6.29906E-14
	8029.67769	3.94755E-6	24754.28894	0.01528	1245.38	2.54521E-14	6.48954E-14
	8020.85422	3.83043E-6	24046.28374	0.01484	1246.75	2.46427E-14	6.26854E-14
	8012.05012	3.54467E-6	22276.78316	0.01375	1248.12	2.27543E-14	5.7631E-14
	8003.26533	3.3446E-6	21042.50099	0.01299	1249.49	2.14229E-14	5.38569E-14
	7994.49978	3.42307E-6	21559.79844	0.01331	1250.86	2.18775E-14	5.49297E-14
	7985.75342	3.72324E-6	23476.09258	0.01449	1252.23	2.37439E-14	5.98772E-14
	7977.02616	4.04536E-6	25535.07436	0.01576	1253.6	2.57418E-14	6.48626E-14
	7968.31162	4.08884E-6	25837.74748	0.01595	1254.971	2.59617E-14	6.51469E-14
	7959.61609	3.95243E-6	25003.05175	0.01544	1256.342	2.50408E-14	6.26076E-14
	7950.93952	3.88803E-6	24622.46927	0.0152	1257.713	2.45791E-14	6.12465E-14
	7942.27554	3.88266E-6	24615.33142	0.0152	1259.085	2.44917E-14	6.09407E-14
	7933.63672	3.87172E-6	24572.68977	0.01517	1260.456	2.43696E-14	6.0591E-14
	7925.01038	3.91766E-6	24891.30791	0.01537	1261.828	2.46052E-14	6.10519E-14
	7916.40279	4.16581E-6	26496.75434	0.01636	1263.2	2.61069E-14	6.46469E-14
	7907.81387	4.1993E-6	26738.72876	0.01651	1264.572	2.62597E-14	6.48609E-14
	7899.24357	3.945E-6	25146.77867	0.01552	1265.944	2.4616E-14	6.08385E-14
	7890.6856	3.91974E-6	25012.88017	0.01544	1267.317	2.44055E-14	6.05115E-14
	7882.14615	4.03693E-6	25788.60694	0.01592	1268.69	2.50808E-14	6.20103E-14
	7873.62517	3.87672E-6	24791.92877	0.01531	1270.063	2.40333E-14	5.91346E-14
	7865.12259	3.49051E-6	22346.20163	0.0138	1271.436	2.15923E-14	5.30697E-14
	7856.63835	3.53779E-6	22673.34578	0.014	1272.809	2.18376E-14	5.37208E-14
	7848.16624	3.96883E-6	25463.29014	0.01572	1274.183	2.44455E-14	6.01689E-14
	7839.71238	4.14509E-6	26622.88214	0.01644	1275.557	2.54762E-14	6.26807E-14
	7831.27671	4.18648E-6	26917.62607	0.01662	1276.931	2.56752E-14	6.31209E-14
	7822.85918	4.18103E-6	26911.53289	0.01661	1278.305	2.55867E-14	6.27605E-14
	7814.45972	4.03645E-6	26008.84897	0.01606	1279.679	2.46489E-14	6.04281E-14
	7806.07219	4.23903E-6	27343.52669	0.01688	1281.054	2.58304E-14	6.34081E-14
	7797.70264	4.81122E-6	31067.72667	0.01918	1282.429	2.92542E-14	7.15584E-14
	7789.35102	4.82991E-6	31221.82633	0.01927	1283.804	2.9305E-14	7.14599E-14
	7781.01727	4.41854E-6	28593.19484	0.01765	1285.179	2.67517E-14	6.54799E-14
	7772.70134	4.4494E-6	28823.73076	0.01779	1286.554	2.6881E-14	6.60166E-14
	7764.39713	4.54025E-6	29443.75788	0.01818	1287.93	2.73713E-14	6.72819E-14
	7756.11065	4.45808E-6	28941.70869	0.01787	1289.306	2.68186E-14	6.5932E-14
	7747.84184	4.61145E-6	29969.39184	0.0185	1290.682	2.76821E-14	6.80192E-14
	7739.59064	4.60808E-6	29979.36824	0.01851	1292.058	2.7603E-14	6.80448E-14
	7731.35101	4.31352E-6	28092.92355	0.01734	1293.435	2.57835E-14	6.37817E-14
	7723.13488	4.03418E-6	26301.60654	0.01624	1294.811	2.40626E-14	5.94585E-14
	7714.93024	3.80186E-6	24813.29454	0.01532	1296.188	2.26287E-14	5.6023E-14
	7706.74301	3.98667E-6	26047.12485	0.01608	1297.565	2.36784E-14	5.88523E-14
	7698.56722	4.47299E-6	29255.56839	0.01806	1298.943	2.65105E-14	6.57315E-14
	7690.41467	4.32201E-6	28298.08466	0.01747	1300.32	2.55615E-14	6.33843E-14
	7682.27346	3.59955E-6	23592.78419	0.01456	1301.698	2.12436E-14	5.30945E-14
	7674.14947	3.32338E-6	21805.72003	0.01346	1303.076	1.95722E-14	4.90992E-14
	7666.04265	3.57087E-6	23454.34643	0.01448	1304.454	2.09854E-14	5.2538E-14
	7657.95294	3.69258E-6	24279.42293	0.01499	1305.832	2.16549E-14	5.42328E-14
	7649.87443	3.58302E-6	23583.89133	0.01456	1307.211	2.0968E-14	5.27434E-14
	7641.81878	3.55908E-6	23451.01961	0.01448	1308.589	2.07841E-14	5.26792E-14
	7633.77426	3.71205E-6	24484.72391	0.01512	1309.968	2.16318E-14	5.50061E-14
	7625.74666	3.85039E-6	25423.94619	0.0157	1311.347	2.23908E-14	5.66016E-14
	7617.73011	3.76911E-6	24913.43559	0.01538	1312.727	2.18721E-14	5.50532E-14
	7609.7362	3.63655E-6	24062.49381	0.01485	1314.106	2.10586E-14	5.31696E-14
	7601.75327	3.78485E-6	25070.10649	0.01548	1315.486	2.18714E-14	5.5266E-14
	7593.78707	3.84966E-6	25526.10794	0.01576	1316.866	2.21993E-14	5.58666E-14
	7585.83754	3.56378E-6	23655.28672	0.0146	1318.246	2.05078E-14	5.14747E-14
	7577.90465	3.44468E-6	22888.63865	0.01413	1319.626	1.97809E-14	4.93391E-14
	7569.9826	3.5065E-6	23323.79116	0.0144	1321.007	2.00938E-14	4.94875E-14
	7562.07709	3.42817E-6	22826.63749	0.01409	1322.388	1.9604E-14	4.78065E-14
	7554.18808	3.429E-6	22856.04072	0.01411	1323.769	1.95679E-14	4.7429E-14
	7546.31551	3.48101E-6	23226.90656	0.01434	1325.15	1.98233E-14	4.78768E-14
	7538.45933	3.29326E-6	21997.05259	0.01358	1326.531	1.87151E-14	4.51587E-14
	7530.61383	3.04211E-6	20340.67087	0.01256	1327.913	1.72518E-14	4.11926E-14
	7522.78463	2.8951E-6	19377.83101	0.01196	1329.295	1.6384E-14	3.83048E-14
	7514.9717	2.84823E-6	19083.957	0.01178	1330.677	1.60853E-14	3.69171E-14
	7507.17498	2.98915E-6	20048.97017	0.01238	1332.059	1.68462E-14	3.80258E-14
	7499.39442	3.16931E-6	21279.37716	0.01314	1333.441	1.78245E-14	3.93007E-14
	7491.62436	3.19365E-6	21465.03023	0.01325	1334.824	1.79242E-14	3.84592E-14
	7483.87039	3.00654E-6	20228.38725	0.01249	1336.207	1.68391E-14	3.51392E-14
	7476.13245	2.5521E-6	17188.64221	0.01061	1337.59	1.42643E-14	2.88104E-14
	7468.41049	2.21269E-6	14918.10725	0.00921	1338.973	1.23418E-14	2.37809E-14
	7460.70447	2.22957E-6	15047.44921	0.00929	1340.356	1.24103E-14	2.25099E-14
	7453.00878	2.1559E-6	14565.22889	0.00899	1341.74	1.19754E-14	2.04944E-14
	7445.32895	1.85813E-6	12566.43808	0.00776	1343.124	1.03001E-14	1.64965E-14
	7437.66493	1.73193E-6	11725.06412	0.00724	1344.508	9.58086E-15	1.40466E-14
	7430.01667	2.02595E-6	13729.67175	0.00848	1345.892	1.11843E-14	1.47344E-14
	7422.37862	2.26019E-6	15332.80992	0.00947	1347.277	1.24517E-14	1.41511E-14
	7414.76175	2.13025E-6	14466.19897	0.00893	1348.661	1.17118E-14	1.06509E-14
	7407.15502	2.04392E-6	13894.21249	0.00858	1350.046	1.12142E-14	7.42619E-15
	7399.56387	1.89379E-6	12886.85176	0.00796	1351.431	1.03692E-14	2.07384E-15
	7391.9828	1.78134E-6	12134.06865	0.00749	1352.817	9.73349E-15	1.9467E-15
	7384.42271	2.10883E-6	14379.54746	0.00888	1354.202	1.14994E-14	2.29987E-15
	7376.87262	2.23907E-6	15283.27237	0.00944	1355.588	1.21846E-14	2.43693E-15
	7369.33795	1.92061E-6	13122.9259	0.0081	1356.974	1.04303E-14	2.08605E-15
	7361.81866	1.74486E-6	11934.29048	0.00737	1358.36	9.45652E-15	1.8913E-15
	7354.3147	1.60594E-6	10995.3048	0.00679	1359.746	8.68587E-15	1.73717E-15
	7346.82602	1.46883E-6	10066.84153	0.00621	1361.132	7.92815E-15	1.58563E-15
	7339.34719	1.54038E-6	10567.95343	0.00652	1362.519	8.29741E-15	1.65948E-15
	7331.88358	1.53779E-6	10560.91581	0.00652	1363.906	8.26661E-15	0
	7324.43512	1.52871E-6	10509.2502	0.00649	1365.293	8.20112E-15	0
	7316.99643	1.44448E-6	9940.32449	0.00614	1366.681	7.73354E-15	0
	7309.57818	1.30536E-6	8992.04703	0.00555	1368.068	6.97453E-15	0
	7302.16962	1.44228E-6	9945.28958	0.00614	1369.456	7.69046E-15	0
	7294.77606	1.3768E-6	9503.40872	0.00587	1370.844	7.32647E-15	0
	7287.39747	1.19521E-6	8258.33412	0.0051	1372.232	6.3473E-15	0
	7280.03378	1.29842E-6	8980.54652	0.00554	1373.62	6.88149E-15	0
	7272.67967	1.29589E-6	8972.13844	0.00554	1375.009	6.85423E-15	0
	7265.3404	1.07134E-6	7424.93377	0.00458	1376.398	5.65509E-15	0
	7258.01593	8.44891E-7	5861.43082	0.00362	1377.787	4.45079E-15	0
	7250.70622	7.21215E-7	5008.46947	0.00309	1379.176	3.79162E-15	0
	7243.41121	8.78709E-7	6108.33035	0.00377	1380.565	4.61032E-15	0
	7236.12563	1.13439E-6	7893.63094	0.00487	1381.955	5.93983E-15	0
	7228.85992	1.15982E-6	8078.68636	0.00499	1383.344	6.06079E-15	0
	7221.60357	1.13855E-6	7938.50865	0.0049	1384.734	5.93771E-15	0
	7214.35657	1.06748E-6	7450.48492	0.0046	1386.125	5.55593E-15	0
	7207.12929	8.97269E-7	6268.7499	0.00387	1387.515	4.66066E-15	0
	7199.9113	7.42829E-7	5194.96507	0.00321	1388.906	3.85073E-15	0
	7192.70775	7.65812E-7	5361.05582	0.00331	1390.297	3.96193E-15	0
	7185.52376	7.59217E-7	5320.20569	0.00328	1391.687	3.91997E-15	0
	7178.3438	4.04055E-7	2834.2426	0.00175	1393.079	2.08204E-15	0
	7171.18332	2.58728E-7	1816.66101	0.00112	1394.47	1.33053E-15	0
	7164.03197	5.06353E-7	3558.90727	0.0022	1395.862	2.59877E-15	0
	7156.89488	5.43967E-7	3827.0924	0.00236	1397.254	2.78626E-15	0
	7149.77199	2.8245E-7	1989.1597	0.00123	1398.646	1.44386E-15	0
	7142.66327	3.86132E-7	2722.05177	0.00168	1400.038	1.96995E-15	0
	7135.56867	8.96604E-7	6326.92677	0.00391	1401.43	4.56518E-15	0
	7128.48307	7.89685E-7	5577.98973	0.00344	1402.823	4.01281E-15	0
	7121.41152	2.21987E-7	1569.57666	9.68968E-4	1404.216	1.1258E-15	0
	7114.35399	1.74396E-7	1234.30645	7.61991E-4	1405.609	8.82691E-16	0
	7107.31044	4.57034E-7	3237.90495	0.002	1407.002	2.30866E-15	0
	7100.27577	3.40848E-7	2417.16632	0.00149	1408.396	1.71835E-15	0
	7093.26006	-2.40533E-8	-170.74529	-1.05408E-4	1409.789	-1.21022E-16	0
	7086.25316	5.53872E-8	393.56217	2.42963E-4	1411.183	2.78127E-16	0
	7079.2601	4.60414E-7	3274.77692	0.00202	1412.577	2.30741E-15	0
	7072.27583	8.33862E-7	5936.84266	0.00367	1413.972	4.17073E-15	0
	7065.31032	9.07586E-7	6468.1091	0.00399	1415.366	4.53054E-15	0
	7058.35353	6.83469E-7	4875.69348	0.00301	1416.761	3.40507E-15	0
	7051.41042	6.54578E-7	4674.186	0.00289	1418.156	3.25472E-15	0
	7044.48097	6.78704E-7	4851.23275	0.00299	1419.551	3.36805E-15	0
	7037.56512	5.5677E-7	3983.58263	0.00246	1420.946	2.75753E-15	0
	7030.65789	3.33722E-7	2390.06598	0.00148	1422.342	1.64959E-15	0
	7023.7642	8.04163E-8	576.49384	3.55895E-4	1423.738	3.9672E-16	0
	7016.88895	1.08753E-7	780.40178	4.81776E-4	1425.133	5.35465E-16	0
	7010.01731	1.62778E-7	1169.22134	7.21811E-4	1426.53	7.99895E-16	0
	7003.16403	6.50375E-9	46.7617	2.8868E-5	1427.926	3.18972E-17	0
	6996.31924	-2.70803E-8	-194.89654	-1.20318E-4	1429.323	-1.32554E-16	0
	6989.4927	1.80809E-7	1302.55042	8.04121E-4	1430.719	8.83305E-16	0
	6982.67459	4.7605E-7	3432.82423	0.00212	1432.116	2.32111E-15	0
	6975.86977	5.16272E-7	3726.5011	0.0023	1433.513	2.51232E-15	0
	6969.07334	-4.91651E-8	-355.22398	-2.19295E-4	1434.911	-2.38785E-16	0
	6962.295	-5.40359E-7	-3907.96299	-0.00241	1436.308	-2.61931E-15	0
	6955.52498	-3.06025E-7	-2215.37738	-0.00137	1437.706	-1.48053E-15	0
	6948.76812	-7.85056E-8	-568.87107	-3.51189E-4	1439.104	-3.79067E-16	0
	6942.02438	-1.18576E-7	-860.06659	-5.30956E-4	1440.502	-5.71439E-16	0
	6935.2889	3.37557E-8	245.07742	1.51297E-4	1441.901	1.62359E-16	0
	6928.57128	2.51685E-7	1829.08984	0.00113	1443.299	1.20822E-15	0
	6921.86187	4.13935E-7	3011.13086	0.00186	1444.698	1.98325E-15	0
	6915.16544	6.33474E-7	4612.61393	0.00285	1446.097	3.02924E-15	0
	6908.48196	6.14311E-7	4477.40368	0.00276	1447.496	2.93193E-15	0
	6901.80662	2.02124E-7	1474.60386	9.10337E-4	1448.896	9.62815E-16	0
	6895.14892	1.19965E-7	876.0554	5.40827E-4	1450.295	5.7035E-16	0
	6888.49931	4.26606E-7	3118.33684	0.00193	1451.695	2.02431E-15	0
	6881.86251	3.11021E-7	2275.64159	0.0014	1453.095	1.47299E-15	0
	6875.23848	2.339E-7	1713.01942	0.00106	1454.495	1.10562E-15	0
	6868.62248	4.5905E-7	3365.20266	0.00208	1455.896	2.16571E-15	0
	6862.0192	3.48188E-7	2554.95177	0.00158	1457.297	1.63952E-15	0
	6855.42861	1.2821E-7	941.69049	5.81346E-4	1458.698	6.02547E-16	0
	6848.85066	3.70785E-8	272.59986	1.68288E-4	1460.099	1.73923E-16	0
	6842.28532	1.22067E-7	898.29255	5.54555E-4	1461.5	5.71479E-16	0
	6835.73256	3.18173E-7	2343.68406	0.00145	1462.901	1.48673E-15	0
	6829.18767	3.55021E-7	2617.61255	0.00162	1464.303	1.65574E-15	0
	6822.65531	5.72598E-7	4225.87637	0.00261	1465.705	2.66536E-15	0
	6816.13543	7.4675E-7	5516.42213	0.00341	1467.107	3.46938E-15	0
	6809.628	3.51607E-7	2599.89263	0.00161	1468.509	1.63044E-15	0
	6803.12835	2.08145E-7	1540.55496	9.51051E-4	1469.912	9.63346E-16	0
	6796.64572	6.9962E-7	5183.08462	0.0032	1471.314	3.23185E-15	0
	6790.17082	8.823E-7	6542.68736	0.00404	1472.717	4.06797E-15	0
	6783.70825	5.76783E-7	4281.20862	0.00264	1474.12	2.65428E-15	0
	6777.25337	1.92606E-7	1430.99137	8.83413E-4	1475.524	8.84662E-16	0
	6770.81535	-2.14938E-7	-1598.42417	-9.86777E-4	1476.927	-9.85358E-16	0
	6764.38497	-3.00884E-7	-2239.71101	-0.00138	1478.331	-1.37675E-15	0
	6757.9668	1.78989E-8	133.36176	8.233E-5	1479.735	8.17445E-17	0
	6751.56079	3.30761E-7	2466.78472	0.00152	1481.139	1.50773E-15	0
	6745.16692	5.00567E-7	3736.71777	0.00231	1482.543	2.27744E-15	0
	6738.7806	5.64651E-7	4219.09891	0.0026	1483.948	2.56415E-15	0
	6732.40637	2.85503E-7	2135.31409	0.00132	1485.353	1.29405E-15	0
	6726.04418	1.09893E-7	822.68393	5.07878E-4	1486.758	4.97155E-16	0
	6719.69401	4.06597E-7	3046.73808	0.00188	1488.163	1.83596E-15	0
	6713.35582	2.81778E-7	2113.43267	0.0013	1489.568	1.26995E-15	0
	6707.02507	-2.13642E-7	-1603.90115	-9.90158E-4	1490.974	-9.61051E-16	0
	6700.70625	-2.49023E-7	-1871.2828	-0.00116	1492.38	-1.1181E-15	0
	6694.39933	-1.52457E-8	-114.67184	-7.07919E-5	1493.786	-6.83236E-17	0
	6688.10427	1.3134E-7	988.81764	6.1044E-4	1495.192	5.87496E-16	0
	6681.82104	2.3368E-7	1760.95323	0.00109	1496.598	1.04331E-15	0
	6675.54514	1.3081E-7	986.67433	6.09117E-4	1498.005	5.82926E-16	0
	6669.28102	-4.94761E-8	-373.54029	-2.30603E-4	1499.412	-2.20066E-16	0
	6663.02865	-3.58192E-8	-270.6852	-1.67106E-4	1500.819	-1.59023E-16	0
	6656.78799	5.62718E-8	425.64406	2.62769E-4	1502.226	2.49356E-16	0
	6650.55901	2.27771E-7	1724.48972	0.00106	1503.633	1.00743E-15	0
	6644.33726	4.45222E-7	3374.00225	0.00208	1505.041	1.96553E-15	0
	6638.12715	4.74877E-7	3602.10191	0.00222	1506.449	2.09253E-15	0
	6631.92862	4.21494E-7	3200.16199	0.00198	1507.857	1.85383E-15	0
	6625.74167	4.34092E-7	3298.89483	0.00204	1509.265	1.90569E-15	0
	6619.56625	2.13621E-7	1624.92971	0.001	1510.673	9.36057E-16	0
	6613.39795	-1.10189E-8	-83.89494	-5.1792E-5	1512.082	-4.81936E-17	0
	6607.24114	1.39324E-7	1061.76349	6.55473E-4	1513.491	6.0823E-16	0
	6601.09578	5.32744E-7	4063.71855	0.00251	1514.9	2.32141E-15	0
	6594.96184	1.14295E-6	8726.38706	0.00539	1516.309	4.97108E-15	0
	6588.83496	1.60182E-6	12241.23088	0.00756	1517.719	6.95393E-15	0
	6582.72377	1.44119E-6	11023.96012	0.00681	1519.128	6.24502E-15	0
	6576.61959	1.01641E-6	7781.9109	0.0048	1520.538	4.39616E-15	0
	6570.52672	8.41303E-7	6447.22472	0.00398	1521.948	3.63206E-15	0
	6564.44082	9.0749E-7	6960.89085	0.0043	1523.359	3.91054E-15	0
	6558.37048	1.0961E-6	8415.37517	0.0052	1524.769	4.71455E-15	0
	6552.30707	8.05671E-7	6191.33772	0.00382	1526.18	3.45897E-15	0
	6546.25485	2.80552E-8	215.79486	1.3322E-4	1527.591	1.20226E-16	0
	6540.21381	-7.36003E-9	-56.66419	-3.49813E-5	1529.002	-3.14821E-17	0
	6534.18391	8.23899E-7	6348.9732	0.00392	1530.413	3.51768E-15	0
	6528.16085	1.36323E-6	10514.76511	0.00649	1531.825	5.80967E-15	0
	6522.15315	1.22834E-6	9483.06387	0.00585	1533.236	5.22518E-15	0
	6516.15224	8.62693E-7	6666.31827	0.00412	1534.648	3.66302E-15	0
	6510.16236	2.87269E-7	2221.86141	0.00137	1536.06	1.21751E-15	0
	6504.17926	-6.08227E-9	-47.08622	-2.90684E-5	1537.473	-2.57306E-17	0
	6498.21137	3.03692E-7	2353.20905	0.00145	1538.885	1.28239E-15	0
	6492.2502	6.97544E-7	5409.99802	0.00334	1540.298	2.9401E-15	0
	6486.29996	1.05076E-6	8156.92256	0.00504	1541.711	4.42076E-15	0
	6480.36062	1.09301E-6	8492.69935	0.00524	1543.124	4.5901E-15	0
	6474.42795	9.56017E-7	7435.06784	0.00459	1544.538	4.00745E-15	0
	6468.51032	6.97132E-7	5426.64561	0.00335	1545.951	2.91691E-15	0
	6462.59932	1.27148E-9	9.90656	6.11575E-6	1547.365	5.31036E-18	0
	6456.69912	-6.46175E-8	-503.91821	-3.11091E-4	1548.779	-2.69383E-16	0
	6450.80967	6.91419E-7	5396.94418	0.00333	1550.193	2.8772E-15	0
	6444.92681	7.66822E-7	5990.97581	0.0037	1551.608	3.18516E-15	0
	6439.05882	4.29617E-7	3359.539	0.00207	1553.022	1.78126E-15	0
	6433.19736	6.77679E-7	5304.17876	0.00327	1554.437	2.80465E-15	0
	6427.34656	9.26046E-7	7254.73865	0.00448	1555.852	3.82557E-15	0
	6421.5064	6.70329E-7	5256.1962	0.00324	1557.267	2.76415E-15	0
	6415.67683	4.54957E-7	3570.65759	0.0022	1558.682	1.87264E-15	0
	6409.85374	8.20246E-7	6443.42862	0.00398	1560.098	3.37008E-15	0
	6404.04121	1.34634E-6	10585.70841	0.00654	1561.514	5.52156E-15	0
	6398.2392	1.20758E-6	9503.3751	0.00587	1562.93	4.94355E-15	0
	6392.44771	7.94306E-7	6256.64401	0.00386	1564.346	3.2458E-15	0
	6386.6626	8.08743E-7	6376.12977	0.00394	1565.763	3.29882E-15	0
	6380.89204	1.18486E-6	9349.90103	0.00577	1567.179	4.82426E-15	0
	6375.12782	1.27378E-6	10060.65451	0.00621	1568.596	5.17693E-15	0
	6369.37401	7.24384E-7	5726.54992	0.00354	1570.013	2.93875E-15	0
	6363.62653	8.03859E-7	6360.56498	0.00393	1571.431	3.25528E-15	0
	6357.89345	1.72768E-6	13682.67197	0.00845	1572.848	6.98377E-15	0
	6352.16666	1.76504E-6	13991.1509	0.00864	1574.266	7.12194E-15	0
	6346.4542	1.09736E-6	8706.40493	0.00537	1575.683	4.41989E-15	0
	6340.74397	8.93501E-7	7095.3823	0.00438	1577.102	3.59233E-15	0
	6335.04802	7.00111E-7	5564.64504	0.00344	1578.52	2.80974E-15	0
	6329.36229	4.29546E-7	3417.20004	0.00211	1579.938	1.7208E-15	0
