LASERINDEX	WAVENUMBER	SPWNPOWER	SpWNQuant	SpQuantNorm	Wavelength	SpecWL	FluAbsRatio
Integer Laser Wavelength	cm^-1	nW/cm-1	photon/s/cm^-1	Norm intensity	nm	W/nm	Experimental Ratio
636	11340.38471	5.27476E-6	23420.4666	0.01446	881.8043	6.78357E-14	1.77933E-13
	11323.51253	4.94199E-6	21975.65811	0.01357	883.1182	6.33672E-14	1.67352E-13
	11306.68664	4.69876E-6	20925.17268	0.01292	884.4324	6.00695E-14	1.59909E-13
	11289.90941	5.04993E-6	22522.46139	0.0139	885.7467	6.43675E-14	1.73357E-13
	11273.17808	5.32707E-6	23793.72752	0.01469	887.0613	6.76988E-14	1.85186E-13
	11256.495	5.2876E-6	23652.4534	0.0146	888.376	6.69985E-14	1.83861E-13
	11239.85743	5.38406E-6	24119.60703	0.01489	889.691	6.80193E-14	1.85517E-13
	11223.26646	5.21885E-6	23414.05326	0.01445	891.0062	6.57376E-14	1.795E-13
	11206.72314	4.6336E-6	20819.04791	0.01285	892.3215	5.81937E-14	1.59799E-13
	11190.22476	4.20675E-6	18929.03613	0.01169	893.6371	5.26774E-14	1.45594E-13
	11173.77239	4.02261E-6	18127.13656	0.01119	894.9529	5.02236E-14	1.3987E-13
	11157.36583	3.69012E-6	16653.25608	0.01028	896.2689	4.59371E-14	1.28222E-13
	11141.00614	3.13321E-6	14160.72809	0.00874	897.585	3.889E-14	1.08288E-13
	11124.69065	3.27403E-6	14818.86204	0.00915	898.9014	4.05189E-14	1.12963E-13
	11108.4204	4.14879E-6	18805.71817	0.01161	900.218	5.11948E-14	1.43576E-13
	11092.19399	4.29546E-6	19499.01013	0.01204	901.5349	5.28499E-14	1.48867E-13
	11076.01491	3.49574E-6	15891.93013	0.00981	902.8518	4.28851E-14	1.21222E-13
	11059.87807	3.18611E-6	14505.46141	0.00895	904.1691	3.89728E-14	1.10646E-13
	11043.78696	3.4674E-6	15809.06642	0.00976	905.4865	4.22902E-14	1.20426E-13
	11027.74017	3.46036E-6	15799.96452	0.00975	906.8041	4.20819E-14	1.20022E-13
	11011.73752	3.6976E-6	16907.69695	0.01044	908.1219	4.48365E-14	1.27818E-13
	10995.77883	3.88873E-6	17807.50064	0.01099	909.4399	4.70176E-14	1.34278E-13
	10979.86271	3.47373E-6	15930.14147	0.00983	910.7582	4.18784E-14	1.20155E-13
	10963.9914	3.39825E-6	15606.57258	0.00963	912.0766	4.08501E-14	1.17709E-13
	10948.16231	3.85808E-6	17743.9481	0.01095	913.3953	4.62438E-14	1.33895E-13
	10932.37767	4.13887E-6	19062.83114	0.01177	914.7141	4.94664E-14	1.43586E-13
	10916.6349	4.07923E-6	18815.27023	0.01162	916.0332	4.86134E-14	1.41443E-13
	10900.93503	3.97379E-6	18355.32386	0.01133	917.3525	4.72207E-14	1.37902E-13
	10885.27906	4.11515E-6	19035.62742	0.01175	918.6719	4.87602E-14	1.42516E-13
	10869.66446	4.33691E-6	20090.23048	0.0124	919.9916	5.12404E-14	1.49483E-13
	10854.09224	4.29953E-6	19945.65404	0.01231	921.3115	5.06533E-14	1.47497E-13
	10838.56339	4.24498E-6	19720.80555	0.01217	922.6315	4.98677E-14	1.45293E-13
	10823.0754	4.45075E-6	20706.33176	0.01278	923.9518	5.21356E-14	1.51906E-13
	10807.62928	4.6419E-6	21626.48512	0.01335	925.2723	5.42196E-14	1.57609E-13
	10792.22485	4.62104E-6	21560.03054	0.01331	926.593	5.38222E-14	1.56442E-13
	10776.86195	4.43827E-6	20736.84183	0.0128	927.9139	5.15465E-14	1.49775E-13
	10761.54041	4.22579E-6	19772.18832	0.01221	929.235	4.89392E-14	1.41757E-13
	10746.26006	4.26746E-6	19995.54338	0.01234	930.5563	4.92816E-14	1.42538E-13
	10731.01959	4.35852E-6	20451.21109	0.01263	931.8779	5.01905E-14	1.4505E-13
	10715.82114	4.2958E-6	20185.47824	0.01246	933.1996	4.93281E-14	1.42421E-13
	10700.66339	4.47075E-6	21037.30552	0.01299	934.5215	5.11919E-14	1.47788E-13
	10685.54617	4.61887E-6	21765.03233	0.01344	935.8436	5.27386E-14	1.52029E-13
	10670.4682	4.31659E-6	20369.39743	0.01257	937.166	4.91482E-14	1.41357E-13
	10655.43158	4.45719E-6	21062.56029	0.013	938.4885	5.06062E-14	1.45022E-13
	10640.43388	5.33037E-6	25224.2947	0.01557	939.8113	6.03499E-14	1.7222E-13
	10625.47722	5.95162E-6	28203.78031	0.01741	941.1342	6.71942E-14	1.91409E-13
	10610.55916	6.1082E-6	28986.47759	0.01789	942.4574	6.87685E-14	1.95579E-13
	10595.68069	6.12368E-6	29100.77553	0.01797	943.7808	6.87496E-14	1.94844E-13
	10580.84277	6.23831E-6	29687.06165	0.01833	945.1043	6.98405E-14	1.97165E-13
	10566.043	6.90598E-6	32910.43929	0.02032	946.4281	7.70992E-14	2.16919E-13
	10551.28234	8.07948E-6	38556.6219	0.0238	947.7521	8.99485E-14	2.51775E-13
	10536.56176	9.37077E-6	44781.36626	0.02765	949.0762	1.04034E-13	2.89258E-13
	10521.87888	1.0819E-5	51774.2801	0.03196	950.4006	1.19777E-13	3.31046E-13
	10507.23465	1.23593E-5	59227.87374	0.03656	951.7252	1.36449E-13	3.7501E-13
	10492.62893	1.39937E-5	67153.39162	0.04146	953.05	1.54064E-13	4.20991E-13
	10478.06046	1.60474E-5	77116.19884	0.04761	954.3751	1.76184E-13	4.79586E-13
	10463.5313	1.84296E-5	88686.76167	0.05475	955.7003	2.01778E-13	5.47122E-13
	10449.04128	2.09885E-5	101140.53438	0.06244	957.0256	2.29157E-13	6.17553E-13
	10434.58698	2.36075E-5	113918.61642	0.07033	958.3513	2.57039E-13	6.89137E-13
	10420.17153	2.57684E-5	124518.33505	0.07687	959.6771	2.79793E-13	7.46279E-13
	10405.7937	2.75016E-5	133077.05588	0.08215	961.0031	2.97789E-13	7.91073E-13
	10391.45332	2.90466E-5	140747.38227	0.08689	962.3293	3.13652E-13	8.31293E-13
	10377.14919	3.00692E-5	145903.1842	0.09007	963.6558	3.23801E-13	8.54647E-13
	10362.8833	3.07636E-5	149477.92318	0.09228	964.9824	3.30368E-13	8.68373E-13
	10348.65338	3.14178E-5	152866.78963	0.09437	966.3093	3.36468E-13	8.8118E-13
	10334.46034	3.17594E-5	154741.13855	0.09553	967.6364	3.39194E-13	8.84672E-13
	10320.30512	3.20022E-5	156137.63354	0.09639	968.9636	3.40851E-13	8.84496E-13
	10306.18543	3.26695E-5	159611.91449	0.09854	970.2911	3.47007E-13	8.92945E-13
	10292.10327	3.36073E-5	164418.16758	0.1015	971.6187	3.55993E-13	9.08158E-13
	10278.05637	3.4892E-5	170937.01438	0.10553	972.9466	3.68594E-13	9.35185E-13
	10264.04565	3.69902E-5	181463.37548	0.11203	974.2747	3.89694E-13	9.83661E-13
	10250.07098	3.909E-5	192025.87447	0.11855	975.603	4.10695E-13	1.03175E-12
	10236.13222	4.05266E-5	199354.09397	0.12307	976.9315	4.24631E-13	1.0627E-12
	10222.23026	4.21865E-5	207801.59592	0.12828	978.2601	4.40824E-13	1.09839E-12
	10208.36185	4.40761E-5	217404.36584	0.13421	979.5891	4.5932E-13	1.14045E-12
	10194.52998	4.55219E-5	224840.13777	0.1388	980.9182	4.73102E-13	1.17149E-12
	10180.73347	4.67269E-5	231104.46945	0.14267	982.2475	4.84312E-13	1.19708E-12
	10166.97218	4.70963E-5	233247.15963	0.14399	983.577	4.86822E-13	1.20291E-12
	10153.24599	4.64203E-5	230209.72597	0.14212	984.9067	4.78539E-13	1.18146E-12
	10139.55475	4.59353E-5	228112.35027	0.14082	986.2366	4.72264E-13	1.16335E-12
	10125.89731	4.56446E-5	226974.42669	0.14012	987.5668	4.68012E-13	1.14965E-12
	10112.27558	4.50528E-5	224333.46796	0.13849	988.8971	4.60702E-13	1.13158E-12
	10098.68842	4.44592E-5	221675.29174	0.13685	990.2276	4.5341E-13	1.11818E-12
	10085.13569	4.32335E-5	215853.42442	0.13326	991.5583	4.39727E-13	1.08998E-12
	10071.61624	4.11837E-5	205895.32137	0.12711	992.8893	4.17757E-13	1.03871E-12
	10058.13097	3.98078E-5	199283.42329	0.12303	994.2205	4.02719E-13	1.00264E-12
	10044.68075	3.93464E-5	197237.39971	0.12176	995.5518	3.96988E-13	9.90773E-13
	10031.26344	3.86943E-5	194228.03691	0.11991	996.8834	3.89366E-13	9.71007E-13
	10017.88092	3.78989E-5	190489.47121	0.1176	998.2151	3.80345E-13	9.43884E-13
	10004.53105	3.71839E-5	187145.19558	0.11553	999.5471	3.72176E-13	9.24033E-13
	9991.21772	3.63344E-5	183113.73225	0.11304	1000.879	3.62707E-13	9.03336E-13
	9977.92882	3.61077E-5	182213.45719	0.11249	1002.212	3.59485E-13	8.9524E-13
	9964.68516	3.66638E-5	185265.64146	0.11437	1003.544	3.64053E-13	9.07725E-13
	9951.4667	3.73287E-5	188875.78057	0.1166	1004.877	3.69672E-13	9.22907E-13
	9938.28326	3.82478E-5	193782.97636	0.11963	1006.21	3.77771E-13	9.43206E-13
	9925.13471	3.92546E-5	199147.64114	0.12294	1007.543	3.86691E-13	9.67917E-13
	9912.01108	4.02689E-5	204563.61705	0.12629	1008.877	3.95633E-13	9.91655E-13
	9898.93191	4.19449E-5	213359.24984	0.13172	1010.21	4.11013E-13	1.02832E-12
	9885.87743	4.45285E-5	226800.5302	0.14001	1011.544	4.3518E-13	1.0884E-12
	9872.85734	4.82367E-5	246011.76076	0.15187	1012.878	4.7018E-13	1.17538E-12
	9859.87151	5.31045E-5	271194.57486	0.16742	1014.212	5.16267E-13	1.28523E-12
	9846.91009	5.81806E-5	297508.21127	0.18366	1015.547	5.64129E-13	1.39874E-12
	9833.99237	6.34758E-5	325011.54982	0.20064	1016.881	6.13858E-13	1.51625E-12
	9821.09886	7.08383E-5	363185.76492	0.22421	1018.216	6.83264E-13	1.6776E-12
	9808.23912	8.0641E-5	413986.02883	0.25557	1019.551	7.75779E-13	1.89334E-12
	9795.40341	9.21669E-5	473776.41685	0.29248	1020.887	8.84341E-13	2.1417E-12
	9782.61082	1.05145E-4	541194.04027	0.3341	1022.222	1.00623E-12	2.41072E-12
	9769.84206	1.18349E-4	609954.8608	0.37655	1023.558	1.12964E-12	2.67575E-12
	9757.10659	1.3166E-4	679445.71636	0.41945	1024.894	1.25342E-12	2.93848E-12
	9744.40428	1.47291E-4	761097.43577	0.46986	1026.23	1.39857E-12	3.25358E-12
	9731.73499	1.64716E-4	852249.59519	0.52613	1027.566	1.55997E-12	3.61202E-12
	9719.09861	1.81301E-4	939281.51833	0.57986	1028.902	1.71259E-12	3.94899E-12
	9706.48558	1.96129E-4	1.01742E6	0.6281	1030.239	1.84785E-12	4.23906E-12
	9693.90525	2.06332E-4	1.07174E6	0.66163	1031.576	1.93894E-12	4.42959E-12
	9681.35748	2.10591E-4	1.09528E6	0.67616	1032.913	1.97384E-12	4.50243E-12
	9668.84216	2.13278E-4	1.11069E6	0.68568	1034.25	1.99386E-12	4.54941E-12
	9656.34982	2.14738E-4	1.11974E6	0.69126	1035.588	2.00233E-12	4.5718E-12
	9643.88973	2.11905E-4	1.10639E6	0.68303	1036.926	1.97082E-12	4.51301E-12
	9631.46175	2.05656E-4	1.07515E6	0.66374	1038.264	1.90777E-12	4.3904E-12
	9619.06576	1.96141E-4	1.02673E6	0.63384	1039.602	1.81482E-12	4.19244E-12
	9606.70164	1.84264E-4	965800.44117	0.59623	1040.94	1.70055E-12	3.93993E-12
	9594.36005	1.73326E-4	909640.28488	0.56156	1042.279	1.5955E-12	3.70797E-12
	9582.05932	1.63816E-4	860831.27599	0.53143	1043.617	1.50409E-12	3.5096E-12
	9569.78093	1.55004E-4	815570.27319	0.50349	1044.956	1.41954E-12	3.32972E-12
	9557.53397	1.4639E-4	771236.70753	0.47612	1046.295	1.33722E-12	3.15425E-12
	9545.3092	1.36611E-4	720635.69864	0.44488	1047.635	1.2447E-12	2.94651E-12
	9533.12475	1.26568E-4	668512.20285	0.4127	1048.974	1.15026E-12	2.72605E-12
	9520.9623	1.18825E-4	628417.7509	0.38795	1050.314	1.07714E-12	2.55215E-12
	9508.83085	1.1291E-4	597895.66688	0.36911	1051.654	1.02091E-12	2.41846E-12
	9496.73028	1.07187E-4	568315.83351	0.35085	1052.994	9.66699E-13	2.29683E-12
	9484.65146	1.01827E-4	540584.47648	0.33373	1054.335	9.16024E-13	2.18483E-12
	9472.61231	9.63277E-5	512038.10089	0.3161	1055.675	8.64352E-13	2.06549E-12
	9460.59473	9.06419E-5	482426.66761	0.29782	1057.016	8.11271E-13	1.94105E-12
	9448.60761	8.63498E-5	460165.92482	0.28408	1058.357	7.70898E-13	1.84826E-12
	9436.65082	8.30015E-5	442882.77542	0.27341	1059.698	7.39131E-13	1.7791E-12
	9424.71537	7.99911E-5	427360.36454	0.26383	1061.04	7.10523E-13	1.71336E-12
	9412.81894	7.77372E-5	415843.74567	0.25672	1062.381	6.88761E-13	1.65828E-12
	9400.94367	7.48133E-5	400707.84409	0.24737	1063.723	6.61183E-13	1.58984E-12
	9389.09832	7.11371E-5	381498.50053	0.23552	1065.065	6.2711E-13	1.50777E-12
	9377.28278	6.87601E-5	369215.78378	0.22793	1066.407	6.04631E-13	1.45848E-12
	9365.48818	6.72898E-5	361775.64461	0.22334	1067.75	5.90214E-13	1.42867E-12
	9353.73195	6.56733E-5	353528.52212	0.21825	1069.092	5.74591E-13	1.39069E-12
	9341.99648	6.40694E-5	345328.18183	0.21319	1070.435	5.59153E-13	1.35579E-12
	9330.29041	6.16068E-5	332471.29593	0.20525	1071.778	5.36314E-13	1.3061E-12
	9318.61365	5.84963E-5	316080.54208	0.19513	1073.121	5.07962E-13	1.23903E-12
	9306.95742	5.65729E-5	306070.71175	0.18895	1074.465	4.90032E-13	1.19511E-12
	9295.3303	5.55997E-5	301181.35638	0.18593	1075.809	4.80399E-13	1.17351E-12
	9283.74083	5.443E-5	295213.59538	0.18225	1077.152	4.69121E-13	1.14833E-12
	9272.17162	5.31783E-5	288784.42092	0.17828	1078.496	4.57191E-13	1.12007E-12
	9260.62263	5.13248E-5	279066.33644	0.17228	1079.841	4.40157E-13	1.07906E-12
	9249.11093	4.8785E-5	265587.00598	0.16396	1081.185	4.17336E-13	1.02361E-12
	9237.61928	4.72402E-5	257496.88235	0.15896	1082.53	4.03117E-13	9.88278E-13
	9226.15615	4.66715E-5	254713.14172	0.15725	1083.875	3.97277E-13	9.72415E-13
	9214.72144	4.57902E-5	250213.60704	0.15447	1085.22	3.88809E-13	9.49811E-13
	9203.31503	4.46076E-5	244053.49032	0.15066	1086.565	3.77831E-13	9.22004E-13
	9191.92838	4.32889E-5	237132.51745	0.14639	1087.911	3.65755E-13	8.91921E-13
	9180.5783	4.18444E-5	229503.00231	0.14168	1089.256	3.52677E-13	8.57553E-13
	9169.24781	4.09597E-5	224928.32478	0.13886	1090.602	3.44369E-13	8.33374E-13
	9157.94525	4.07733E-5	224180.88431	0.1384	1091.948	3.41957E-13	8.23867E-13
	9146.66215	4.03735E-5	222256.39981	0.13721	1093.295	3.3777E-13	8.1015E-13
	9135.41517	3.97802E-5	219260.02599	0.13536	1094.641	3.31989E-13	7.91304E-13
	9124.18749	3.94011E-5	217437.67625	0.13423	1095.988	3.28017E-13	7.7616E-13
	9112.98737	3.90141E-5	215566.66216	0.13308	1097.335	3.23999E-13	7.6205E-13
	9101.81472	3.90466E-5	216011.24537	0.13335	1098.682	3.23474E-13	7.55069E-13
	9090.66943	3.97143E-5	219974.36006	0.1358	1100.029	3.282E-13	7.59262E-13
	9079.54315	4.08237E-5	226396.10352	0.13976	1101.377	3.36543E-13	7.7253E-13
	9068.44408	4.21662E-5	234127.47772	0.14454	1102.725	3.46761E-13	7.88381E-13
	9057.37211	4.33327E-5	240898.47279	0.14872	1104.073	3.55484E-13	7.98591E-13
	9046.32715	4.46122E-5	248314.66504	0.1533	1105.421	3.65089E-13	8.09894E-13
	9035.30908	4.65187E-5	259241.91532	0.16004	1106.769	3.79764E-13	8.32219E-13
	9024.30969	4.88E-5	272286.82891	0.16809	1108.118	3.97418E-13	8.60417E-13
	9013.33703	5.15661E-5	288070.88528	0.17784	1109.467	4.18924E-13	8.95129E-13
	9002.39104	5.50955E-5	308161.70123	0.19024	1110.816	4.4651E-13	9.40616E-13
	8991.47159	5.80504E-5	325083.43523	0.20069	1112.165	4.69317E-13	9.72951E-13
	8980.5786	6.01662E-5	337340.65383	0.20826	1113.514	4.85245E-13	9.90917E-13
	8969.70393	6.32024E-5	354794.10866	0.21903	1114.864	5.08499E-13	1.02638E-12
	8958.85556	6.72154E-5	377778.56199	0.23322	1116.214	5.39479E-13	1.07555E-12
	8948.0334	7.10926E-5	400053.13198	0.24697	1117.564	5.69219E-13	1.11819E-12
	8937.23736	7.46378E-5	420510.17153	0.2596	1118.914	5.96164E-13	1.15556E-12
	8926.46733	7.71486E-5	435180.29649	0.26866	1120.264	6.14734E-13	1.17978E-12
	8915.71529	7.84878E-5	443268.07774	0.27365	1121.615	6.23899E-13	1.18746E-12
	8904.98911	8.04878E-5	455111.09102	0.28096	1122.966	6.38259E-13	1.20322E-12
	8894.28871	8.34592E-5	472480.24276	0.29168	1124.317	6.60232E-13	1.23145E-12
	8883.614	8.63229E-5	489279.75183	0.30205	1125.668	6.81248E-13	1.25737E-12
	8872.957	8.9175E-5	506052.43118	0.31241	1127.02	7.02069E-13	1.28512E-12
	8862.3334	9.09396E-5	516684.76835	0.31897	1128.371	7.14248E-13	1.30138E-12
	8851.72737	9.10636E-5	518009.2863	0.31979	1129.723	7.13511E-13	1.29441E-12
	8841.1467	9.15895E-5	521624.37906	0.32202	1131.075	7.15917E-13	1.2926E-12
	8830.59129	9.27663E-5	528958.1532	0.32655	1132.427	7.23386E-13	1.30173E-12
	8820.05327	9.3145E-5	531751.76664	0.32827	1133.78	7.24606E-13	1.29825E-12
	8809.54038	9.24403E-5	528358.62516	0.32618	1135.133	7.17411E-13	1.27696E-12
	8799.06026	9.0395E-5	517283.76842	0.31934	1136.485	6.99869E-13	1.24201E-12
	8788.5896	8.72292E-5	499762.50284	0.30853	1137.839	6.73753E-13	1.19552E-12
	8778.15153	8.46356E-5	485479.6076	0.29971	1139.192	6.52168E-13	1.15391E-12
	8767.73823	8.25821E-5	474263.12867	0.29278	1140.545	6.34836E-13	1.1186E-12
	8757.34194	8.01831E-5	461032.15414	0.28462	1141.899	6.14932E-13	1.08009E-12
	8746.97027	7.78303E-5	448034.83167	0.27659	1143.253	5.95476E-13	1.04539E-12
	8736.62314	7.46715E-5	430360.061	0.26568	1144.607	5.69957E-13	9.98587E-13
	8726.30046	7.05512E-5	407094.51694	0.25132	1145.961	5.37236E-13	9.36485E-13
	8715.99455	6.74759E-5	389809.3821	0.24065	1147.316	5.12604E-13	8.90967E-13
	8705.71295	6.56561E-5	379744.7506	0.23443	1148.671	4.97604E-13	8.62385E-13
	8695.45558	6.41758E-5	371620.40941	0.22942	1150.026	4.85239E-13	8.37778E-13
	8685.22235	6.29508E-5	364956.61261	0.2253	1151.381	4.74858E-13	8.18459E-13
	8675.01319	6.0768E-5	352716.35631	0.21775	1152.736	4.57315E-13	7.89954E-13
	8664.82048	5.77171E-5	335401.96622	0.20706	1154.092	4.33335E-13	7.5109E-13
	8654.65919	5.59771E-5	325672.54782	0.20105	1155.447	4.19286E-13	7.28006E-13
	8644.51423	5.5231E-5	321709.16883	0.19861	1156.803	4.12729E-13	7.18829E-13
	8634.39303	5.42449E-5	316335.37818	0.19529	1158.159	4.04411E-13	7.07132E-13
	8624.28807	5.3236E-5	310815.42214	0.19188	1159.516	3.9596E-13	6.92862E-13
	8614.21414	5.16999E-5	302200.10455	0.18656	1160.872	3.83637E-13	6.72748E-13
	8604.15632	4.95358E-5	289889.01556	0.17896	1162.229	3.66721E-13	6.4749E-13
	8594.12196	4.82761E-5	282847.01459	0.17461	1163.586	3.56562E-13	6.32744E-13
	8584.11098	4.81604E-5	282498.18371	0.1744	1164.943	3.54879E-13	6.31265E-13
	8574.11594	4.79495E-5	281588.65442	0.17384	1166.301	3.52503E-13	6.29479E-13
	8564.15149	4.71748E-5	277361.64248	0.17123	1167.658	3.46002E-13	6.21021E-13
	8554.20285	4.59859E-5	270686.16357	0.16711	1169.016	3.36499E-13	6.06456E-13
	8544.2773	4.45745E-5	262682.75518	0.16217	1170.374	3.25414E-13	5.89289E-13
	8534.37475	4.37539E-5	258146.21691	0.15936	1171.732	3.18684E-13	5.80675E-13
	8524.48787	4.3714E-5	258209.75953	0.1594	1173.091	3.17656E-13	5.82897E-13
	8514.63112	4.36305E-5	258015.07661	0.15928	1174.449	3.16316E-13	5.84285E-13
	8504.7899	4.32913E-5	256305.2489	0.15823	1175.808	3.13132E-13	5.80509E-13
	8494.9714	4.25263E-5	252067.22341	0.15561	1177.167	3.06889E-13	5.71958E-13
	8485.17555	4.15366E-5	246485.07313	0.15217	1178.526	2.99056E-13	5.62912E-13
	8475.39508	4.10969E-5	244157.30068	0.15073	1179.886	2.95208E-13	5.603E-13
	8465.63713	4.10187E-5	243973.66548	0.15062	1181.246	2.93969E-13	5.60171E-13
	8455.90878	4.10153E-5	244234.36139	0.15078	1182.605	2.93269E-13	5.61108E-13
	8446.18849	4.11208E-5	245144.31275	0.15134	1183.966	2.93348E-13	5.64978E-13
	8436.49764	4.08116E-5	243580.13083	0.15037	1185.326	2.90474E-13	5.63819E-13
	8426.829	3.99644E-5	238797.58176	0.14742	1186.686	2.83793E-13	5.55565E-13
	8417.17541	3.92336E-5	234699.42549	0.14489	1188.047	2.77965E-13	5.49428E-13
	8407.54392	3.87028E-5	231789.56804	0.14309	1189.408	2.73578E-13	5.45457E-13
	8397.93444	3.83198E-5	229758.39009	0.14184	1190.769	2.70251E-13	5.42483E-13
	8388.34691	3.83276E-5	230067.72032	0.14203	1192.13	2.6969E-13	5.46169E-13
	8378.77422	3.77587E-5	226911.63471	0.14008	1193.492	2.6508E-13	5.42997E-13
	8369.23036	3.6398E-5	218984.43218	0.13519	1194.853	2.54946E-13	5.27394E-13
	8359.70122	3.57228E-5	215166.83055	0.13283	1196.215	2.49647E-13	5.19444E-13
	8350.19377	3.58878E-5	216406.81318	0.1336	1197.577	2.5023E-13	5.23311E-13
	8340.70095	3.59122E-5	216800.69565	0.13384	1198.94	2.49832E-13	5.25855E-13
	8331.23664	3.55325E-5	214751.69413	0.13258	1200.302	2.46629E-13	5.22104E-13
	8321.78685	3.47805E-5	210445.49635	0.12992	1201.665	2.40862E-13	5.14447E-13
	8312.35848	3.38262E-5	204903.39091	0.1265	1203.028	2.33723E-13	5.05016E-13
	8302.95145	3.33339E-5	202150.12987	0.1248	1204.391	2.298E-13	5.0173E-13
	8293.56569	3.32449E-5	201839.0189	0.1246	1205.754	2.28669E-13	5.03671E-13
	8284.19425	3.30278E-5	200747.46105	0.12393	1207.118	2.26663E-13	5.02124E-13
	8274.84398	3.26268E-5	198533.94785	0.12256	1208.482	2.23405E-13	4.97871E-13
	8265.51478	3.19148E-5	194421.1404	0.12002	1209.846	2.18038E-13	4.89657E-13
	8256.2066	3.10015E-5	189070.40201	0.11672	1211.21	2.11322E-13	4.7839E-13
	8246.91936	3.05321E-5	186417.16448	0.11508	1212.574	2.07654E-13	4.73529E-13
	8237.64621	3.05224E-5	186567.47182	0.11518	1213.939	2.07121E-13	4.74234E-13
	8228.39388	3.03706E-5	185848.38899	0.11473	1215.304	2.05628E-13	4.73354E-13
	8219.16232	2.9995E-5	183756.17617	0.11344	1216.669	2.0263E-13	4.71051E-13
	8209.95145	2.94121E-5	180387.62159	0.11136	1218.034	1.98248E-13	4.64809E-13
	8200.76119	2.8674E-5	176057.83866	0.10869	1219.399	1.9284E-13	4.5458E-13
	8191.58478	2.82184E-5	173454.37272	0.10708	1220.765	1.89351E-13	4.4917E-13
	8182.43558	2.80139E-5	172389.75621	0.10642	1222.13	1.87559E-13	4.4809E-13
	8173.30012	2.7777E-5	171123.02317	0.10564	1223.496	1.85558E-13	4.45502E-13
	8164.17836	2.73903E-5	168929.11834	0.10429	1224.863	1.82567E-13	4.40377E-13
	8155.08359	2.65246E-5	163772.50762	0.1011	1226.229	1.76403E-13	4.28426E-13
	8146.00243	2.55409E-5	157874.81838	0.09746	1227.596	1.69483E-13	4.15196E-13
	8136.94147	2.52124E-5	156017.52676	0.09632	1228.963	1.66931E-13	4.11694E-13
	8127.90064	2.52982E-5	156722.7078	0.09675	1230.33	1.67127E-13	4.13893E-13
	8118.87989	2.52428E-5	156553.3573	0.09665	1231.697	1.66391E-13	4.14928E-13
	8109.87913	2.51535E-5	156172.41657	0.09641	1233.064	1.65435E-13	4.14421E-13
	8100.89175	2.48556E-5	154494.30279	0.09538	1234.432	1.63114E-13	4.08504E-13
	8091.92426	2.41926E-5	150539.71008	0.09293	1235.8	1.58411E-13	3.9746E-13
	8082.9766	2.39241E-5	149033.7714	0.09201	1237.168	1.56307E-13	3.93367E-13
	8074.04872	2.39369E-5	149278.42508	0.09216	1238.536	1.56045E-13	3.93508E-13
	8065.13402	2.39483E-5	149514.50225	0.0923	1239.905	1.55775E-13	3.93433E-13
	8056.24548	2.43124E-5	151955.3829	0.09381	1241.273	1.57795E-13	3.99972E-13
	8047.37004	2.43294E-5	152229.15802	0.09398	1242.642	1.57557E-13	4.01635E-13
	8038.51413	2.37705E-5	148895.9606	0.09192	1244.011	1.53599E-13	3.92383E-13
	8029.67769	2.36955E-5	148589.58639	0.09173	1245.38	1.52778E-13	3.8954E-13
	8020.85422	2.41716E-5	151741.75039	0.09368	1246.75	1.55506E-13	3.9557E-13
	8012.05012	2.45197E-5	154096.22871	0.09513	1248.12	1.57399E-13	3.98653E-13
	8003.26533	2.49458E-5	156946.40348	0.09689	1249.49	1.59784E-13	4.01694E-13
	7994.49978	2.52898E-5	159285.28634	0.09833	1250.86	1.61633E-13	4.05825E-13
	7985.75342	2.51859E-5	158804.25006	0.09804	1252.23	1.60616E-13	4.0504E-13
	7977.02616	2.53507E-5	160018.46102	0.09879	1253.6	1.61314E-13	4.06469E-13
	7968.31162	2.60097E-5	164357.38999	0.10146	1254.971	1.65146E-13	4.14408E-13
	7959.61609	2.6695E-5	168872.16726	0.10425	1256.342	1.69127E-13	4.22856E-13
	7950.93952	2.7117E-5	171729.23306	0.10602	1257.713	1.71427E-13	4.27163E-13
	7942.27554	2.71916E-5	172389.5318	0.10642	1259.085	1.71524E-13	4.26789E-13
	7933.63672	2.72458E-5	172920.8634	0.10675	1260.456	1.71492E-13	4.26386E-13
	7925.01038	2.73452E-5	173740.83336	0.10726	1261.828	1.71744E-13	4.26141E-13
	7916.40279	2.73369E-5	173877.27036	0.10734	1263.2	1.71319E-13	4.24227E-13
	7907.81387	2.75056E-5	175140.22901	0.10812	1264.572	1.72002E-13	4.24842E-13
	7899.24357	2.78382E-5	177449.86193	0.10955	1265.944	1.73705E-13	4.29311E-13
	7890.6856	2.80253E-5	178836.70905	0.1104	1267.317	1.74494E-13	4.32644E-13
	7882.14615	2.8092E-5	179456.24872	0.11079	1268.69	1.7453E-13	4.31514E-13
	7873.62517	2.83509E-5	181306.45537	0.11193	1270.063	1.75759E-13	4.32458E-13
	7865.12259	2.88046E-5	184406.80287	0.11384	1271.436	1.78186E-13	4.37945E-13
	7856.63835	2.91556E-5	186855.81643	0.11535	1272.809	1.79968E-13	4.42725E-13
	7848.16624	2.93669E-5	188413.10782	0.11632	1274.183	1.80882E-13	4.45214E-13
	7839.71238	2.90968E-5	186881.47099	0.11537	1275.557	1.78832E-13	4.39992E-13
	7831.27671	2.84908E-5	183185.91773	0.11309	1276.931	1.74731E-13	4.29565E-13
	7822.85918	2.84753E-5	183283.69395	0.11315	1278.305	1.74261E-13	4.27436E-13
	7814.45972	2.89342E-5	186437.66031	0.1151	1279.679	1.76689E-13	4.33163E-13
	7806.07219	2.92157E-5	188453.93161	0.11634	1281.054	1.78025E-13	4.37014E-13
	7797.70264	2.94416E-5	190114.41964	0.11737	1282.429	1.79017E-13	4.37891E-13
	7789.35102	2.93594E-5	189787.30259	0.11716	1283.804	1.78135E-13	4.34382E-13
	7781.01727	2.88054E-5	186405.43449	0.11508	1285.179	1.744E-13	4.26878E-13
	7772.70134	2.87391E-5	186175.23919	0.11493	1286.554	1.73627E-13	4.26408E-13
	7764.39713	2.9027E-5	188241.46294	0.11621	1287.93	1.74992E-13	4.3015E-13
	7756.11065	2.89633E-5	188029.25669	0.11608	1289.306	1.74236E-13	4.28349E-13
	7747.84184	2.90532E-5	188813.95631	0.11656	1290.682	1.74404E-13	4.28536E-13
	7739.59064	2.89954E-5	188639.46642	0.11646	1292.058	1.73686E-13	4.28159E-13
	7731.35101	2.81857E-5	183567.1097	0.11332	1293.435	1.68477E-13	4.16768E-13
	7723.13488	2.75807E-5	179817.80354	0.11101	1294.811	1.6451E-13	4.06504E-13
	7714.93024	2.7702E-5	180800.74747	0.11162	1296.188	1.64883E-13	4.08209E-13
	7706.74301	2.76864E-5	180890.72701	0.11167	1297.565	1.6444E-13	4.08715E-13
	7698.56722	2.72271E-5	178078.63507	0.10994	1298.943	1.61369E-13	4.00108E-13
	7690.41467	2.679E-5	175405.77291	0.10829	1300.32	1.58443E-13	3.92888E-13
	7682.27346	2.64521E-5	173377.12543	0.10703	1301.698	1.56113E-13	3.90178E-13
	7674.14947	2.62131E-5	171992.39209	0.10618	1303.076	1.54376E-13	3.87269E-13
	7666.04265	2.62166E-5	172196.95173	0.1063	1304.454	1.5407E-13	3.85723E-13
	7657.95294	2.64451E-5	173881.38152	0.10734	1305.832	1.55085E-13	3.88398E-13
	7649.87443	2.64588E-5	174155.24817	0.10751	1307.211	1.54838E-13	3.89484E-13
	7641.81878	2.59816E-5	171194.72156	0.10569	1308.589	1.51726E-13	3.84563E-13
	7633.77426	2.52925E-5	166829.38979	0.10299	1309.968	1.47391E-13	3.7479E-13
	7625.74666	2.48623E-5	164164.68451	0.10135	1311.347	1.44579E-13	3.65482E-13
	7617.73011	2.49117E-5	164663.81393	0.10165	1312.727	1.44562E-13	3.63871E-13
	7609.7362	2.4899E-5	164752.56796	0.10171	1314.106	1.44185E-13	3.64045E-13
	7601.75327	2.4691E-5	163548.05568	0.10097	1315.486	1.42681E-13	3.60535E-13
	7593.78707	2.43344E-5	161354.89939	0.09961	1316.866	1.40326E-13	3.53143E-13
	7585.83754	2.37303E-5	157514.4773	0.09724	1318.246	1.36556E-13	3.42757E-13
	7577.90465	2.31409E-5	153762.88145	0.09492	1319.626	1.32886E-13	3.31453E-13
	7569.9826	2.24893E-5	149589.7823	0.09235	1321.007	1.28874E-13	3.17394E-13
	7562.07709	2.22331E-5	148040.14558	0.09139	1322.388	1.2714E-13	3.10045E-13
	7554.18808	2.24417E-5	149584.9191	0.09235	1323.769	1.28065E-13	3.10407E-13
	7546.31551	2.20241E-5	146954.56683	0.09072	1325.15	1.2542E-13	3.02912E-13
	7538.45933	2.1178E-5	141456.7156	0.08733	1326.531	1.20351E-13	2.90403E-13
	7530.61383	2.06218E-5	137884.96886	0.08512	1327.913	1.16947E-13	2.79236E-13
	7522.78463	1.99733E-5	133687.77273	0.08253	1329.295	1.13033E-13	2.64265E-13
	7514.9717	1.93566E-5	129695.04997	0.08007	1330.677	1.09316E-13	2.50889E-13
	7507.17498	1.91212E-5	128250.44384	0.07917	1332.059	1.07763E-13	2.43246E-13
	7499.39442	1.87134E-5	125645.25844	0.07757	1333.441	1.05246E-13	2.32053E-13
	7491.62436	1.79366E-5	120554.59099	0.07442	1334.824	1.00668E-13	2.15999E-13
	7483.87039	1.72789E-5	116254.80035	0.07177	1336.207	9.67763E-14	2.01949E-13
	7476.13245	1.6966E-5	114267.91747	0.07054	1337.59	9.48275E-14	1.91528E-13
	7468.41049	1.67333E-5	112816.8073	0.06965	1338.973	9.33335E-14	1.79841E-13
	7460.70447	1.63599E-5	110413.58442	0.06816	1340.356	9.10629E-14	1.65171E-13
	7453.00878	1.58506E-5	107086.85192	0.06611	1341.74	8.80461E-14	1.50679E-13
	7445.32895	1.50458E-5	101754.3496	0.06282	1343.124	8.34034E-14	1.33577E-13
	7437.66493	1.42821E-5	96688.71564	0.05969	1344.508	7.90069E-14	1.15833E-13
	7430.01667	1.40415E-5	95157.6974	0.05874	1345.892	7.75162E-14	1.02121E-13
	7422.37862	1.37881E-5	93536.44171	0.05774	1347.277	7.59608E-14	8.63274E-14
	7414.76175	1.34452E-5	91304.54727	0.05637	1348.661	7.39202E-14	6.72242E-14
	7407.15502	1.32558E-5	90110.33393	0.05563	1350.046	7.27291E-14	4.81623E-14
	7399.56387	1.2961E-5	88196.55209	0.05445	1351.431	7.09658E-14	1.41932E-14
	7391.9828	1.26705E-5	86308.48877	0.05328	1352.817	6.92334E-14	1.38467E-14
	7384.42271	1.24175E-5	84671.44988	0.05227	1354.202	6.7712E-14	1.35424E-14
	7376.87262	1.20015E-5	81919.161	0.05057	1355.588	6.53103E-14	1.30621E-14
	7369.33795	1.15753E-5	79090.84014	0.04883	1356.974	6.28624E-14	1.25725E-14
	7361.81866	1.1414E-5	78068.17464	0.04819	1358.36	6.18598E-14	1.2372E-14
	7354.3147	1.12671E-5	77141.92125	0.04762	1359.746	6.09391E-14	1.21878E-14
	7346.82602	1.07625E-5	73762.46802	0.04554	1361.132	5.80917E-14	1.16183E-14
	7339.34719	1.01169E-5	69408.08702	0.04285	1362.519	5.44956E-14	1.08991E-14
	7331.88358	9.71053E-6	66688.08145	0.04117	1363.906	5.22004E-14	0
	7324.43512	9.56434E-6	65750.88742	0.04059	1365.293	5.13101E-14	0
	7316.99643	9.53389E-6	65608.1632	0.0405	1366.681	5.10429E-14	0
	7309.57818	9.32026E-6	64203.15838	0.03964	1368.068	4.97981E-14	0
	7302.16962	8.72209E-6	60143.60356	0.03713	1369.456	4.65077E-14	0
	7294.77606	8.07582E-6	55743.65341	0.03441	1370.844	4.29745E-14	0
	7287.39747	7.86507E-6	54343.8862	0.03355	1372.232	4.17683E-14	0
	7280.03378	7.89651E-6	54616.33548	0.03372	1373.62	4.18506E-14	0
	7272.67967	7.90798E-6	54750.98768	0.0338	1375.009	4.18268E-14	0
	7265.3404	7.82084E-6	54202.33384	0.03346	1376.398	4.12824E-14	0
	7258.01593	7.58673E-6	52632.94748	0.03249	1377.787	3.9966E-14	0
	7250.70622	7.36744E-6	51163.14356	0.03159	1379.176	3.87327E-14	0
	7243.41121	6.93411E-6	48202.34739	0.02976	1380.565	3.63812E-14	0
	7236.12563	6.29009E-6	43769.49199	0.02702	1381.955	3.29359E-14	0
	7228.85992	5.59263E-6	38955.37508	0.02405	1383.344	2.92251E-14	0
	7221.60357	4.96545E-6	34621.50196	0.02137	1384.734	2.58956E-14	0
	7214.35657	4.75218E-6	33167.73266	0.02048	1386.125	2.47336E-14	0
	7207.12929	4.7474E-6	33167.65104	0.02048	1387.515	2.46593E-14	0
	7199.9113	4.57785E-6	32015.15083	0.01976	1388.906	2.3731E-14	0
	7192.70775	4.37698E-6	30641.02789	0.01892	1390.297	2.26443E-14	0
	7185.52376	3.99608E-6	28002.44633	0.01729	1391.687	2.06324E-14	0
	7178.3438	3.37375E-6	23665.15495	0.01461	1393.079	1.73845E-14	0
	7171.18332	2.91992E-6	20502.23615	0.01266	1394.47	1.5016E-14	0
	7164.03197	2.47581E-6	17401.25357	0.01074	1395.862	1.27067E-14	0
	7156.89488	2.26518E-6	15936.70397	0.00984	1397.254	1.16025E-14	0
	7149.77199	2.56409E-6	18057.68245	0.01115	1398.646	1.31074E-14	0
	7142.66327	2.6811E-6	18900.51295	0.01167	1400.038	1.36783E-14	0
	7135.56867	2.67202E-6	18855.22765	0.01164	1401.43	1.36049E-14	0
	7128.48307	2.54414E-6	17970.66926	0.01109	1402.823	1.29281E-14	0
	7121.41152	1.97552E-6	13968.03778	0.00862	1404.216	1.00187E-14	0
	7114.35399	1.8148E-6	12844.4133	0.00793	1405.609	9.18544E-15	0
	7107.31044	2.11569E-6	14988.79488	0.00925	1407.002	1.06871E-14	0
	7100.27577	1.96086E-6	13905.68375	0.00858	1408.396	9.88547E-15	0
	7093.26006	1.5533E-6	11026.33453	0.00681	1409.789	7.81534E-15	0
	7086.25316	1.39679E-6	9925.1031	0.00613	1411.183	7.01398E-15	0
	7079.2601	1.1884E-6	8452.66769	0.00522	1412.577	5.95575E-15	0
	7072.27583	1.17327E-6	8353.33835	0.00516	1413.972	5.86836E-15	0
	7065.31032	1.58334E-6	11284.00561	0.00697	1415.366	7.90381E-15	0
	7058.35353	1.56786E-6	11184.73055	0.0069	1416.761	7.81115E-15	0
	7051.41042	1.26356E-6	9022.78404	0.00557	1418.156	6.28272E-15	0
	7044.48097	1.24195E-6	8877.18395	0.00548	1419.551	6.16313E-15	0
	7037.56512	1.21266E-6	8676.35299	0.00536	1420.946	6.00598E-15	0
	7030.65789	9.78289E-7	7006.35187	0.00433	1422.342	4.8357E-15	0
	7023.7642	7.62153E-7	5463.77442	0.00337	1423.738	3.75995E-15	0
	7016.88895	7.7781E-7	5581.48195	0.00345	1425.133	3.82968E-15	0
	7010.01731	6.44668E-7	4630.60667	0.00286	1426.53	3.16792E-15	0
	7003.16403	5.60546E-7	4030.30609	0.00249	1427.926	2.74916E-15	0
	6996.31924	9.02395E-7	6494.53161	0.00401	1429.323	4.41709E-15	0
	6989.4927	1.14942E-6	8280.43633	0.00511	1430.719	5.61525E-15	0
	6982.67459	1.16594E-6	8407.66551	0.00519	1432.116	5.68486E-15	0
	6975.86977	9.73445E-7	7026.41385	0.00434	1433.513	4.73705E-15	0
	6969.07334	7.95767E-7	5749.52046	0.00355	1434.911	3.86488E-15	0
	6962.295	8.35647E-7	6043.53968	0.00373	1436.308	4.05068E-15	0
	6955.52498	8.95476E-7	6482.53719	0.004	1437.706	4.33225E-15	0
	6948.76812	9.90603E-7	7178.14927	0.00443	1439.104	4.78316E-15	0
	6942.02438	1.05078E-6	7621.60687	0.00471	1440.502	5.06389E-15	0
	6935.2889	1.27231E-6	9237.39503	0.0057	1441.901	6.11959E-15	0
	6928.57128	1.63163E-6	11857.63449	0.00732	1443.299	7.83264E-15	0
	6921.86187	1.48301E-6	10788.02643	0.00666	1444.698	7.10542E-15	0
	6915.16544	1.12154E-6	8166.41178	0.00504	1446.097	5.36313E-15	0
	6908.48196	1.05215E-6	7668.62463	0.00473	1447.496	5.02163E-15	0
	6901.80662	7.60691E-7	5549.6605	0.00343	1448.896	3.62355E-15	0
	6895.14892	5.48218E-7	4003.41657	0.00247	1450.295	2.6064E-15	0
	6888.49931	9.45585E-7	6911.89174	0.00427	1451.695	4.48694E-15	0
	6881.86251	1.28558E-6	9406.22259	0.00581	1453.095	6.08853E-15	0
	6875.23848	1.25725E-6	9207.79106	0.00568	1454.495	5.94289E-15	0
	6868.62248	1.28182E-6	9396.72831	0.0058	1455.896	6.04735E-15	0
	6862.0192	1.41427E-6	10377.72679	0.00641	1457.297	6.65943E-15	0
	6855.42861	1.34043E-6	9845.32387	0.00608	1458.698	6.2996E-15	0
	6848.85066	1.1867E-6	8724.56221	0.00539	1460.099	5.56642E-15	0
	6842.28532	1.26777E-6	9329.51642	0.00576	1461.5	5.93529E-15	0
	6835.73256	1.17139E-6	8628.51943	0.00533	1462.901	5.47357E-15	0
	6829.18767	7.66933E-7	5654.69638	0.00349	1464.303	3.57681E-15	0
	6822.65531	1.05057E-6	7753.41374	0.00479	1465.705	4.89027E-15	0
	6816.13543	1.48155E-6	10944.58691	0.00676	1467.107	6.88325E-15	0
	6809.628	1.13454E-6	8389.1409	0.00518	1468.509	5.26098E-15	0
	6803.12835	7.9185E-7	5860.7768	0.00362	1469.912	3.66489E-15	0
	6796.64572	5.5177E-7	4087.7491	0.00252	1471.314	2.54887E-15	0
	6790.17082	4.7233E-7	3502.56001	0.00216	1472.717	2.17774E-15	0
	6783.70825	5.1981E-7	3858.31715	0.00238	1474.12	2.3921E-15	0
	6777.25337	4.56121E-7	3388.8105	0.00209	1475.524	2.09502E-15	0
	6770.81535	3.93318E-7	2924.98118	0.00181	1476.927	1.80312E-15	0
	6764.38497	5.75779E-7	4285.96466	0.00265	1478.331	2.63459E-15	0
	6757.9668	1.33457E-6	9943.68709	0.00614	1479.735	6.09502E-15	0
	6751.56079	1.91292E-6	14266.38879	0.00881	1481.139	8.71979E-15	0
	6745.16692	1.87884E-6	14025.50923	0.00866	1482.543	8.54823E-15	0
	6738.7806	1.4799E-6	11057.85698	0.00683	1483.948	6.72039E-15	0
	6732.40637	7.07389E-7	5290.64283	0.00327	1485.353	3.20626E-15	0
	6726.04418	3.21397E-7	2406.03859	0.00149	1486.758	1.45399E-15	0
	6719.69401	8.58205E-7	6430.75829	0.00397	1488.163	3.87516E-15	0
	6713.35582	1.22572E-6	9193.32512	0.00568	1489.568	5.52422E-15	0
	6707.02507	9.47654E-7	7114.4373	0.00439	1490.974	4.26294E-15	0
	6700.70625	7.25687E-7	5453.17882	0.00337	1492.38	3.2583E-15	0
	6694.39933	9.69237E-7	7290.1966	0.0045	1493.786	4.34364E-15	0
	6688.10427	1.3288E-6	10004.07434	0.00618	1495.192	5.94381E-15	0
	6681.82104	1.44878E-6	10917.62529	0.00674	1496.598	6.46833E-15	0
	6675.54514	1.73673E-6	13099.84905	0.00809	1498.005	7.73937E-15	0
	6669.28102	2.3544E-6	17775.53607	0.01097	1499.412	1.04722E-14	0
	6663.02865	2.62724E-6	19854.03258	0.01226	1500.819	1.16639E-14	0
	6656.78799	2.10954E-6	15956.69976	0.00985	1502.226	9.34795E-15	0
	6650.55901	1.42166E-6	10763.6112	0.00664	1503.633	6.28799E-15	0
	6644.33726	1.11351E-6	8438.49372	0.00521	1505.041	4.91586E-15	0
	6638.12715	1.09369E-6	8296.04507	0.00512	1506.449	4.81933E-15	0
	6631.92862	1.20266E-6	9131.13567	0.00564	1507.857	5.28961E-15	0
	6625.74167	1.29132E-6	9813.41204	0.00606	1509.265	5.66895E-15	0
	6619.56625	1.28274E-6	9757.3016	0.00602	1510.673	5.62079E-15	0
	6613.39795	1.27016E-6	9670.60287	0.00597	1512.082	5.55529E-15	0
	6607.24114	1.11546E-6	8500.70924	0.00525	1513.491	4.86962E-15	0
	6601.09578	1.10041E-6	8393.7986	0.00518	1514.9	4.79497E-15	0
	6594.96184	1.51329E-6	11553.96337	0.00713	1516.309	6.58184E-15	0
	6588.83496	1.97349E-6	15081.58592	0.00931	1517.719	8.56746E-15	0
	6582.72377	1.97627E-6	15116.84578	0.00933	1519.128	8.56362E-15	0
	6576.61959	1.8408E-6	14093.70168	0.0087	1520.538	7.96182E-15	0
	6570.52672	2.16989E-6	16628.66987	0.01027	1521.948	9.36779E-15	0
	6564.44082	2.18343E-6	16747.99496	0.01034	1523.359	9.40882E-15	0
	6558.37048	1.9125E-6	14683.4188	0.00906	1524.769	8.22611E-15	0
	6552.30707	1.86901E-6	14362.73691	0.00887	1526.18	8.02415E-15	0
	6546.25485	1.72569E-6	13273.64108	0.00819	1527.591	7.39517E-15	0
	6540.21381	1.69548E-6	13053.35169	0.00806	1529.002	7.25232E-15	0
	6534.18391	2.01445E-6	15523.33691	0.00958	1530.413	8.60079E-15	0
	6528.16085	2.0329E-6	15679.98658	0.00968	1531.825	8.66358E-15	0
	6522.15315	1.59642E-6	12324.75127	0.00761	1533.236	6.79095E-15	0
	6516.15224	1.65466E-6	12786.09091	0.00789	1534.648	7.02572E-15	0
	6510.16236	2.19781E-6	16998.79498	0.01049	1536.06	9.31479E-15	0
	6504.17926	2.24885E-6	17409.59913	0.01075	1537.473	9.51361E-15	0
	6498.21137	1.72648E-6	13377.93686	0.00826	1538.885	7.29038E-15	0
	6492.2502	1.63416E-6	12674.20719	0.00782	1540.298	6.88788E-15	0
	6486.29996	1.93696E-6	15036.43127	0.00928	1541.711	8.1492E-15	0
	6480.36062	1.86328E-6	14477.71427	0.00894	1543.124	7.82486E-15	0
	6474.42795	1.79307E-6	13944.96973	0.00861	1544.538	7.51625E-15	0
	6468.51032	1.88557E-6	14677.77604	0.00906	1545.951	7.88955E-15	0
	6462.59932	2.13041E-6	16598.80209	0.01025	1547.365	8.8977E-15	0
	6456.69912	2.93079E-6	22855.71063	0.01411	1548.779	1.22182E-14	0
	6450.80967	3.45729E-6	26986.20442	0.01666	1550.193	1.43868E-14	0
	6444.92681	3.28883E-6	25694.75908	0.01586	1551.608	1.36609E-14	0
	6439.05882	3.13067E-6	24481.37546	0.01511	1553.022	1.29802E-14	0
	6433.19736	2.90428E-6	22731.72622	0.01403	1554.437	1.20197E-14	0
	6427.34656	2.4473E-6	19172.41807	0.01184	1555.852	1.011E-14	0
	6421.5064	1.99987E-6	15681.39542	0.00968	1557.267	8.2466E-15	0
	6415.67683	1.79797E-6	14111.05588	0.00871	1558.682	7.40059E-15	0
	6409.85374	1.79525E-6	14102.56763	0.00871	1560.098	7.37602E-15	0
	6404.04121	1.75906E-6	13830.83259	0.00854	1561.514	7.21423E-15	0
	6398.2392	1.98187E-6	15596.80858	0.00963	1562.93	8.11328E-15	0
	6392.44771	2.51493E-6	19809.78814	0.01223	1564.346	1.02769E-14	0
	6386.6626	2.74186E-6	21616.82695	0.01335	1565.763	1.11839E-14	0
	6380.89204	2.84812E-6	22474.88183	0.01387	1567.179	1.15963E-14	0
	6375.12782	2.85318E-6	22535.16356	0.01391	1568.596	1.1596E-14	0
	6369.37401	2.28411E-6	18056.79469	0.01115	1570.013	9.26638E-15	0
	6363.62653	2.25541E-6	17846.02643	0.01102	1571.431	9.13345E-15	0
	6357.89345	3.09458E-6	24508.05411	0.01513	1572.848	1.25092E-14	0
	6352.16666	3.22724E-6	25581.72651	0.01579	1574.266	1.30219E-14	0
	6346.4542	2.81515E-6	22335.24046	0.01379	1575.683	1.13387E-14	0
	6340.74397	2.72582E-6	21645.99609	0.01336	1577.102	1.09592E-14	0
	6335.04802	2.60532E-6	20707.73031	0.01278	1578.52	1.04559E-14	0
	6329.36229	2.51897E-6	20039.39688	0.01237	1579.938	1.00912E-14	0
