LASERINDEX	WAVENUMBER	SPWNPOWER	SpWNQuant	SpQuantNorm	Wavelength	SpecWL	FluAbsRatio
Integer Laser Wavelength	cm^-1	nW/cm-1	photon/s/cm^-1	Norm intensity	nm	W/nm	Experimental Ratio
671	11340.38471	1.08791E-5	48304.26783	0.02982	881.8043	1.3991E-13	3.66982E-13
	11323.51253	1.13752E-5	50582.40128	0.03123	883.1182	1.45855E-13	3.85201E-13
	11306.68664	1.20289E-5	53568.73177	0.03307	884.4324	1.53779E-13	4.0937E-13
	11289.90941	1.24553E-5	55550.0689	0.03429	885.7467	1.58758E-13	4.27573E-13
	11273.17808	1.24245E-5	55494.84828	0.03426	887.0613	1.57896E-13	4.31916E-13
	11256.495	1.18547E-5	53028.22021	0.03274	888.376	1.50209E-13	4.12212E-13
	11239.85743	1.08883E-5	48777.62316	0.03011	889.691	1.37557E-13	3.75176E-13
	11223.26646	1.0321E-5	46304.7145	0.02859	891.0062	1.30006E-13	3.54988E-13
	11206.72314	1.0367E-5	46579.38511	0.02876	892.3215	1.30199E-13	3.57526E-13
	11190.22476	1.0483E-5	47170.3898	0.02912	893.6371	1.3127E-13	3.62815E-13
	11173.77239	1.02218E-5	46062.68589	0.02844	894.9529	1.27623E-13	3.55422E-13
	11157.36583	9.65292E-6	43562.99862	0.02689	896.2689	1.20166E-13	3.35414E-13
	11141.00614	9.3002E-6	42032.81876	0.02595	897.585	1.15436E-13	3.21427E-13
	11124.69065	9.2623E-6	41922.9463	0.02588	898.9014	1.14629E-13	3.19574E-13
	11108.4204	9.2604E-6	41975.71889	0.02591	900.218	1.14271E-13	3.20471E-13
	11092.19399	8.98863E-6	40803.44148	0.02519	901.5349	1.10593E-13	3.11517E-13
	11076.01491	8.79874E-6	39999.78612	0.02469	902.8518	1.07941E-13	3.05115E-13
	11059.87807	8.93304E-6	40669.56002	0.02511	904.1691	1.0927E-13	3.10222E-13
	11043.78696	8.99912E-6	41030.13671	0.02533	905.4865	1.09758E-13	3.12549E-13
	11027.74017	9.01038E-6	41141.241	0.0254	906.8041	1.09576E-13	3.12523E-13
	11011.73752	9.0701E-6	41474.09511	0.0256	908.1219	1.09983E-13	3.13533E-13
	10995.77883	9.19457E-6	42104.25337	0.02599	909.4399	1.11169E-13	3.17489E-13
	10979.86271	9.47858E-6	43467.73018	0.02683	910.7582	1.14271E-13	3.2786E-13
	10963.9914	9.95493E-6	45718.33155	0.02822	912.0766	1.19667E-13	3.44819E-13
	10948.16231	1.05631E-5	48581.3404	0.02999	913.3953	1.26611E-13	3.66593E-13
	10932.37767	1.12541E-5	51834.18596	0.032	914.7141	1.34505E-13	3.90429E-13
	10916.6349	1.19262E-5	55009.26287	0.03396	916.0332	1.42129E-13	4.13531E-13
	10900.93503	1.26845E-5	58590.75423	0.03617	917.3525	1.5073E-13	4.40188E-13
	10885.27906	1.35561E-5	62706.91179	0.03871	918.6719	1.60625E-13	4.69473E-13
	10869.66446	1.38079E-5	63963.38099	0.03949	919.9916	1.63139E-13	4.75925E-13
	10854.09224	1.34044E-5	62183.61553	0.03839	921.3115	1.57919E-13	4.59845E-13
	10838.56339	1.33792E-5	62155.23796	0.03837	922.6315	1.57171E-13	4.57928E-13
	10823.0754	1.3981E-5	65044.23265	0.04015	923.9518	1.63772E-13	4.77177E-13
	10807.62928	1.47067E-5	68518.29179	0.0423	925.2723	1.71782E-13	4.99346E-13
	10792.22485	1.52361E-5	71085.72265	0.04388	926.593	1.77458E-13	5.15806E-13
	10776.86195	1.53488E-5	71713.89489	0.04427	927.9139	1.78262E-13	5.17966E-13
	10761.54041	1.53186E-5	71674.64281	0.04425	929.235	1.77406E-13	5.13874E-13
	10746.26006	1.54929E-5	72593.45518	0.04482	930.5563	1.78916E-13	5.17483E-13
	10731.01959	1.573E-5	73808.87275	0.04557	931.8779	1.81139E-13	5.23488E-13
	10715.82114	1.6134E-5	75811.75254	0.0468	933.1996	1.85264E-13	5.34899E-13
	10700.66339	1.68168E-5	79132.43139	0.04885	934.5215	1.9256E-13	5.55908E-13
	10685.54617	1.74328E-5	82146.88756	0.05071	935.8436	1.99049E-13	5.73798E-13
	10670.4682	1.80426E-5	85140.37938	0.05256	937.166	2.05431E-13	5.90845E-13
	10655.43158	1.90787E-5	90156.79647	0.05566	938.4885	2.16616E-13	6.20755E-13
	10640.43388	2.07264E-5	98081.19415	0.06055	939.8113	2.34662E-13	6.69654E-13
	10625.47722	2.33878E-5	110831.32144	0.06842	941.1342	2.64051E-13	7.52174E-13
	10610.55916	2.67759E-5	127065.4029	0.07844	942.4574	3.01454E-13	8.57341E-13
	10595.68069	2.98926E-5	142054.5024	0.0877	943.7808	3.35599E-13	9.51127E-13
	10580.84277	3.32692E-5	158322.39787	0.09774	945.1043	3.72462E-13	1.05149E-12
	10566.043	3.83151E-5	182590.38118	0.11272	946.4281	4.27754E-13	1.20349E-12
	10551.28234	4.51121E-5	215282.273	0.1329	947.7521	5.02231E-13	1.40579E-12
	10536.56176	5.31814E-5	254145.24256	0.15689	949.0762	5.90416E-13	1.64161E-12
	10521.87888	6.25246E-5	299211.45702	0.18472	950.4006	6.92209E-13	1.91317E-12
	10507.23465	7.27936E-5	348839.25069	0.21535	951.7252	8.03655E-13	2.20873E-12
	10492.62893	8.41412E-5	403780.39566	0.24927	953.05	9.26355E-13	2.53134E-12
	10478.06046	9.75625E-5	468838.18114	0.28943	954.3751	1.07114E-12	2.9157E-12
	10463.5313	1.12634E-4	542014.61787	0.33461	955.7003	1.23318E-12	3.34377E-12
	10449.04128	1.285E-4	619225.54882	0.38227	957.0256	1.403E-12	3.78093E-12
	10434.58698	1.44133E-4	695518.96622	0.42937	958.3513	1.56933E-12	4.20746E-12
	10420.17153	1.56452E-4	756008.31796	0.46672	959.6771	1.69875E-12	4.531E-12
	10405.7937	1.64071E-4	793922.88221	0.49012	961.0031	1.77657E-12	4.71946E-12
	10391.45332	1.69781E-4	822687.00538	0.50788	962.3293	1.83334E-12	4.85902E-12
	10377.14919	1.74223E-4	845372.20317	0.52188	963.6558	1.87612E-12	4.95188E-12
	10362.8833	1.751E-4	850800.0788	0.52524	964.9824	1.88039E-12	4.94261E-12
	10348.65338	1.7224E-4	838051.38157	0.51737	966.3093	1.8446E-12	4.83083E-12
	10334.46034	1.65678E-4	807230.16037	0.49834	967.6364	1.76946E-12	4.61503E-12
	10320.30512	1.57113E-4	766549.43652	0.47322	968.9636	1.67339E-12	4.34239E-12
	10306.18543	1.50101E-4	733343.26335	0.45272	970.2911	1.59434E-12	4.10267E-12
	10292.10327	1.44372E-4	706316.31389	0.43604	971.6187	1.52929E-12	3.90131E-12
	10278.05637	1.39523E-4	683527.65684	0.42197	972.9466	1.4739E-12	3.73953E-12
	10264.04565	1.36623E-4	670231.61357	0.41376	974.2747	1.43933E-12	3.63313E-12
	10250.07098	1.3333E-4	654968.81752	0.40434	975.603	1.40081E-12	3.51915E-12
	10236.13222	1.29069E-4	634901.57533	0.39195	976.9315	1.35236E-12	3.38448E-12
	10222.23026	1.26917E-4	625167.13911	0.38594	978.2601	1.32621E-12	3.30447E-12
	10208.36185	1.26505E-4	623984.39633	0.38521	979.5891	1.31832E-12	3.27328E-12
	10194.52998	1.25975E-4	622209.55482	0.38412	980.9182	1.30923E-12	3.24193E-12
	10180.73347	1.2513E-4	618876.37176	0.38206	982.2475	1.29694E-12	3.20567E-12
	10166.97218	1.22777E-4	608061.68119	0.37538	983.577	1.26912E-12	3.13591E-12
	10153.24599	1.19019E-4	590244.47331	0.36438	984.9067	1.22695E-12	3.02919E-12
	10139.55475	1.16085E-4	576473.88058	0.35588	986.2366	1.19348E-12	2.93995E-12
	10125.89731	1.14063E-4	567193.03821	0.35015	987.5668	1.16953E-12	2.87289E-12
	10112.27558	1.11759E-4	556484.16926	0.34354	988.8971	1.14282E-12	2.80702E-12
	10098.68842	1.09161E-4	544282.65853	0.33601	990.2276	1.11327E-12	2.74549E-12
	10085.13569	1.05336E-4	525915.96885	0.32467	991.5583	1.07137E-12	2.65569E-12
	10071.61624	1.00406E-4	501972.28592	0.30989	992.8893	1.01849E-12	2.53236E-12
	10058.13097	9.69125E-5	485158.01434	0.29951	994.2205	9.80425E-13	2.44095E-12
	10044.68075	9.47289E-5	474861.8105	0.29315	995.5518	9.55773E-13	2.38535E-12
	10031.26344	9.2813E-5	465879.71003	0.28761	996.8834	9.33942E-13	2.32908E-12
	10017.88092	9.12854E-5	458823.97199	0.28325	998.2151	9.16121E-13	2.27349E-12
	10004.53105	8.8728E-5	446564.95237	0.27568	999.5471	8.88084E-13	2.20492E-12
	9991.21772	8.54599E-5	430690.05679	0.26588	1000.879	8.53099E-13	2.12468E-12
	9977.92882	8.38209E-5	422992.34408	0.26113	1002.212	8.34513E-13	2.07822E-12
	9964.68516	8.33823E-5	421338.41143	0.26011	1003.544	8.27944E-13	2.06438E-12
	9951.4667	8.3255E-5	421253.82238	0.26006	1004.877	8.24488E-13	2.05838E-12
	9938.28326	8.36991E-5	424062.93496	0.26179	1006.21	8.26692E-13	2.06405E-12
	9925.13471	8.39477E-5	425885.94953	0.26292	1007.543	8.26955E-13	2.06993E-12
	9912.01108	8.41671E-5	427564.21833	0.26395	1008.877	8.26925E-13	2.07269E-12
	9898.93191	8.57077E-5	435965.42135	0.26914	1010.21	8.3984E-13	2.1012E-12
	9885.87743	8.87197E-5	451882.66209	0.27897	1011.544	8.67063E-13	2.16855E-12
	9872.85734	9.29264E-5	473932.90685	0.29258	1012.878	9.05784E-13	2.26433E-12
	9859.87151	9.86788E-5	503933.47715	0.3111	1014.212	9.59326E-13	2.38822E-12
	9846.91009	1.04926E-4	536541.92198	0.33123	1015.547	1.01738E-12	2.52256E-12
	9833.99237	1.1112E-4	568961.91043	0.35124	1016.881	1.07461E-12	2.65432E-12
	9821.09886	1.20191E-4	616214.00699	0.38042	1018.216	1.15929E-12	2.84637E-12
	9808.23912	1.32895E-4	682240.58504	0.42118	1019.551	1.27847E-12	3.12019E-12
	9795.40341	1.47755E-4	759523.22947	0.46889	1020.887	1.41771E-12	3.43342E-12
	9782.61082	1.64577E-4	847098.81181	0.52295	1022.222	1.57499E-12	3.77336E-12
	9769.84206	1.81734E-4	936632.64086	0.57822	1023.558	1.73465E-12	4.10883E-12
	9757.10659	1.98858E-4	1.02623E6	0.63353	1024.894	1.89315E-12	4.43825E-12
	9744.40428	2.1879E-4	1.13056E6	0.69794	1026.23	2.07748E-12	4.83296E-12
	9731.73499	2.40966E-4	1.24677E6	0.76968	1027.566	2.28211E-12	5.28409E-12
	9719.09861	2.62496E-4	1.35993E6	0.83955	1028.902	2.47956E-12	5.71752E-12
	9706.48558	2.81903E-4	1.46237E6	0.90279	1030.239	2.65597E-12	6.09293E-12
	9693.90525	2.95465E-4	1.53471E6	0.94745	1031.576	2.77653E-12	6.34311E-12
	9681.35748	3.02032E-4	1.57086E6	0.96976	1032.913	2.83091E-12	6.45744E-12
	9668.84216	3.0688E-4	1.59814E6	0.9866	1034.25	2.86892E-12	6.54602E-12
	9656.34982	3.10646E-4	1.61984E6	1	1035.588	2.89662E-12	6.61369E-12
	9643.88973	3.09497E-4	1.61594E6	0.99759	1036.926	2.87847E-12	6.59146E-12
	9631.46175	3.04151E-4	1.59008E6	0.98162	1038.264	2.82146E-12	6.49309E-12
	9619.06576	2.94488E-4	1.54154E6	0.95166	1039.602	2.72479E-12	6.29458E-12
	9606.70164	2.81469E-4	1.47529E6	0.91076	1040.94	2.59764E-12	6.01836E-12
	9594.36005	2.69607E-4	1.41494E6	0.8735	1042.279	2.48178E-12	5.7677E-12
	9582.05932	2.58967E-4	1.36084E6	0.8401	1043.617	2.37773E-12	5.54811E-12
	9569.78093	2.48972E-4	1.31E6	0.80872	1044.956	2.28011E-12	5.34831E-12
	9557.53397	2.39926E-4	1.26402E6	0.78033	1046.295	2.19164E-12	5.16965E-12
	9545.3092	2.28511E-4	1.20542E6	0.74416	1047.635	2.08203E-12	4.92866E-12
	9533.12475	2.14988E-4	1.13553E6	0.70101	1048.974	1.95382E-12	4.63047E-12
	9520.9623	2.04814E-4	1.08318E6	0.66869	1050.314	1.85661E-12	4.39904E-12
	9508.83085	1.98318E-4	1.05016E6	0.64831	1051.654	1.79315E-12	4.24785E-12
	9496.73028	1.91862E-4	1.01727E6	0.628	1052.994	1.73037E-12	4.11127E-12
	9484.65146	1.85143E-4	982893.84508	0.60678	1054.335	1.66552E-12	3.97247E-12
	9472.61231	1.77363E-4	942785.47089	0.58202	1055.675	1.59148E-12	3.80307E-12
	9460.59473	1.68655E-4	897637.03425	0.55415	1057.016	1.50951E-12	3.61166E-12
	9448.60761	1.6261E-4	866560.86501	0.53497	1058.357	1.45172E-12	3.48054E-12
	9436.65082	1.58733E-4	846972.82038	0.52287	1059.698	1.41352E-12	3.40237E-12
	9424.71537	1.54849E-4	827293.84014	0.51072	1061.04	1.37545E-12	3.31675E-12
	9412.81894	1.51438E-4	810096.35183	0.50011	1062.381	1.34176E-12	3.23046E-12
	9400.94367	1.47296E-4	788935.19635	0.48704	1063.723	1.30177E-12	3.13017E-12
	9389.09832	1.41926E-4	761132.15005	0.46988	1065.065	1.25115E-12	3.00816E-12
	9377.28278	1.37998E-4	740999.155	0.45745	1066.407	1.21347E-12	2.92709E-12
	9365.48818	1.35634E-4	729222.60721	0.45018	1067.75	1.18968E-12	2.87974E-12
	9353.73195	1.33066E-4	716313.32998	0.44221	1069.092	1.16423E-12	2.81779E-12
	9341.99648	1.30166E-4	701584.82608	0.43312	1070.435	1.136E-12	2.75448E-12
	9330.29041	1.26415E-4	682218.50196	0.42116	1071.778	1.1005E-12	2.68007E-12
	9318.61365	1.2194E-4	658895.76326	0.40676	1073.121	1.05889E-12	2.58286E-12
	9306.95742	1.18493E-4	641073.02785	0.39576	1074.465	1.02638E-12	2.50319E-12
	9295.3303	1.16001E-4	628372.0721	0.38792	1075.809	1.00228E-12	2.44836E-12
	9283.74083	1.13561E-4	615926.15867	0.38024	1077.152	9.78762E-13	2.39584E-12
	9272.17162	1.11057E-4	603092.42863	0.37232	1078.496	9.54789E-13	2.33914E-12
	9260.62263	1.07426E-4	584105.76294	0.36059	1079.841	9.21279E-13	2.25855E-12
	9249.11093	1.03022E-4	560853.01967	0.34624	1081.185	8.81309E-13	2.16161E-12
	9237.61928	1.00157E-4	545938.021	0.33703	1082.53	8.54678E-13	2.09532E-12
	9226.15615	9.88478E-5	539469.72823	0.33304	1083.875	8.41412E-13	2.05953E-12
	9214.72144	9.75822E-5	533223.09476	0.32918	1085.22	8.28581E-13	2.02412E-12
	9203.31503	9.6287E-5	526797.93276	0.32522	1086.565	8.1556E-13	1.99018E-12
	9191.92838	9.41819E-5	515919.16702	0.3185	1087.911	7.95758E-13	1.94051E-12
	9180.5783	9.10609E-5	499439.28152	0.30833	1089.256	7.67489E-13	1.86619E-12
	9169.24781	8.92324E-5	490015.38459	0.30251	1090.602	7.50223E-13	1.81554E-12
	9157.94525	8.88714E-5	488635.23363	0.30166	1091.948	7.45346E-13	1.79574E-12
	9146.66215	8.85744E-5	487602.93289	0.30102	1093.295	7.41026E-13	1.77737E-12
	9135.41517	8.8321E-5	486806.38402	0.30053	1094.641	7.3709E-13	1.75687E-12
	9124.18749	8.73635E-5	482121.61777	0.29763	1095.988	7.27308E-13	1.72097E-12
	9112.98737	8.57886E-5	474012.04307	0.29263	1097.335	7.12444E-13	1.67568E-12
	9101.81472	8.5836E-5	474856.1112	0.29315	1098.682	7.11091E-13	1.65986E-12
	9090.66943	8.73399E-5	483768.28824	0.29865	1100.029	7.21779E-13	1.66977E-12
	9079.54315	8.93212E-5	495349.25042	0.3058	1101.377	7.36347E-13	1.69028E-12
	9068.44408	9.22618E-5	512282.98868	0.31625	1102.725	7.5873E-13	1.72502E-12
	9057.37211	9.49446E-5	527823.43214	0.32585	1104.073	7.78887E-13	1.74976E-12
	9046.32715	9.72839E-5	541488.60613	0.33428	1105.421	7.96133E-13	1.7661E-12
	9035.30908	1.01586E-4	566126.10863	0.34949	1106.769	8.29319E-13	1.81738E-12
	9024.30969	1.07538E-4	600022.20889	0.37042	1108.118	8.75767E-13	1.89605E-12
	9013.33703	1.13914E-4	636371.48059	0.39286	1109.467	9.25437E-13	1.97741E-12
	9002.39104	1.21118E-4	677441.77008	0.41821	1110.816	9.81578E-13	2.06779E-12
	8991.47159	1.27663E-4	714916.75325	0.44135	1112.165	1.03211E-12	2.13969E-12
	8980.5786	1.33051E-4	745994.06278	0.46053	1113.514	1.07307E-12	2.19131E-12
	8969.70393	1.39873E-4	785193.79084	0.48473	1114.864	1.12536E-12	2.27149E-12
	8958.85556	1.48121E-4	832498.50495	0.51394	1116.214	1.18883E-12	2.37015E-12
	8948.0334	1.55806E-4	876751.20915	0.54126	1117.564	1.24749E-12	2.45062E-12
	8937.23736	1.62643E-4	916334.13413	0.56569	1118.914	1.2991E-12	2.51808E-12
	8926.46733	1.68105E-4	948249.76331	0.5854	1120.264	1.33949E-12	2.57073E-12
	8915.71529	1.72303E-4	973100.07325	0.60074	1121.615	1.36964E-12	2.60682E-12
	8904.98911	1.78014E-4	1.00656E6	0.62139	1122.966	1.41163E-12	2.66114E-12
	8894.28871	1.85336E-4	1.04923E6	0.64773	1124.317	1.46616E-12	2.73465E-12
	8883.614	1.92031E-4	1.08844E6	0.67194	1125.668	1.51548E-12	2.79712E-12
	8872.957	1.98056E-4	1.12393E6	0.69385	1127.02	1.55928E-12	2.85422E-12
	8862.3334	2.01949E-4	1.1474E6	0.70834	1128.371	1.58612E-12	2.88996E-12
	8851.72737	2.03146E-4	1.15558E6	0.71339	1129.723	1.59171E-12	2.8876E-12
	8841.1467	2.04969E-4	1.16735E6	0.72065	1131.075	1.60216E-12	2.89272E-12
	8830.59129	2.07152E-4	1.18119E6	0.7292	1132.427	1.61536E-12	2.90682E-12
	8820.05327	2.07912E-4	1.18694E6	0.73275	1133.78	1.61742E-12	2.89788E-12
	8809.54038	2.07966E-4	1.18867E6	0.73382	1135.133	1.61399E-12	2.87282E-12
	8799.06026	2.05053E-4	1.17341E6	0.7244	1136.485	1.58759E-12	2.81738E-12
	8788.5896	1.99024E-4	1.14027E6	0.70394	1137.839	1.53725E-12	2.72773E-12
	8778.15153	1.93965E-4	1.1126E6	0.68686	1139.192	1.49461E-12	2.64448E-12
	8767.73823	1.89588E-4	1.08879E6	0.67216	1140.545	1.45742E-12	2.56803E-12
	8757.34194	1.84671E-4	1.06181E6	0.6555	1141.899	1.41626E-12	2.48757E-12
	8746.97027	1.79725E-4	1.0346E6	0.6387	1143.253	1.37507E-12	2.41402E-12
	8736.62314	1.73215E-4	998306.47265	0.6163	1144.607	1.32213E-12	2.31642E-12
	8726.30046	1.65473E-4	954814.57382	0.58945	1145.961	1.26005E-12	2.19647E-12
	8715.99455	1.60019E-4	924431.29279	0.57069	1147.316	1.21564E-12	2.11292E-12
	8705.71295	1.56522E-4	905296.35138	0.55888	1148.671	1.18627E-12	2.05589E-12
	8695.45558	1.52702E-4	884248.13488	0.54588	1150.026	1.1546E-12	1.99344E-12
	8685.22235	1.49218E-4	865091.10809	0.53406	1151.381	1.1256E-12	1.94007E-12
	8675.01319	1.44562E-4	839082.38076	0.518	1152.736	1.08791E-12	1.87923E-12
	8664.82048	1.38463E-4	804629.11675	0.49673	1154.092	1.03957E-12	1.80187E-12
	8654.65919	1.34562E-4	782878.35289	0.4833	1155.447	1.00791E-12	1.75004E-12
	8644.51423	1.32321E-4	770739.33824	0.47581	1156.803	9.888E-13	1.72215E-12
	8634.39303	1.29888E-4	757455.77116	0.46761	1158.159	9.68349E-13	1.69321E-12
	8624.28807	1.27853E-4	746465.4664	0.46083	1159.516	9.50952E-13	1.664E-12
	8614.21414	1.24649E-4	728608.09155	0.4498	1160.872	9.24954E-13	1.622E-12
	8604.15632	1.19997E-4	702236.97632	0.43352	1162.229	8.88358E-13	1.5685E-12
	8594.12196	1.171E-4	686081.62885	0.42355	1163.586	8.64887E-13	1.5348E-12
	8584.11098	1.1604E-4	680665.27382	0.4202	1164.943	8.55064E-13	1.521E-12
	8574.11594	1.14841E-4	674414.99639	0.41635	1166.301	8.44257E-13	1.50763E-12
	8564.15149	1.13351E-4	666441.42355	0.41142	1167.658	8.3137E-13	1.49218E-12
	8554.20285	1.11126E-4	654117.57287	0.40382	1169.016	8.13156E-13	1.46551E-12
	8544.2773	1.08372E-4	638648.66353	0.39427	1170.374	7.91165E-13	1.43271E-12
	8534.37475	1.06682E-4	629421.97774	0.38857	1171.732	7.77027E-13	1.41582E-12
	8524.48787	1.05797E-4	624924.05097	0.38579	1173.091	7.68796E-13	1.41074E-12
	8514.63112	1.05092E-4	621475.21519	0.38366	1174.449	7.61905E-13	1.40735E-12
	8504.7899	1.04969E-4	621468.63683	0.38366	1175.808	7.59258E-13	1.40757E-12
	8494.9714	1.03702E-4	614673.91569	0.37946	1177.167	7.48359E-13	1.39474E-12
	8485.17555	1.0096E-4	599111.71174	0.36986	1178.526	7.26891E-13	1.36823E-12
	8475.39508	9.99508E-5	593809.15349	0.36658	1179.886	7.17969E-13	1.36269E-12
	8465.63713	1.00485E-4	597668.29363	0.36897	1181.246	7.20142E-13	1.37226E-12
	8455.90878	1.00682E-4	599534.67567	0.37012	1182.605	7.19904E-13	1.37738E-12
	8446.18849	1.01135E-4	602923.326	0.37221	1183.966	7.21479E-13	1.38954E-12
	8436.49764	1.00832E-4	601805.0423	0.37152	1185.326	7.17665E-13	1.39301E-12
	8426.829	9.87882E-5	590284.99408	0.36441	1186.686	7.01509E-13	1.3733E-12
	8417.17541	9.7463E-5	583034.50783	0.35993	1188.047	6.90514E-13	1.36488E-12
	8407.54392	9.75907E-5	584467.24166	0.36082	1189.408	6.89838E-13	1.37539E-12
	8397.93444	9.76125E-5	585266.74316	0.36131	1190.769	6.88415E-13	1.38188E-12
	8388.34691	9.72381E-5	583688.19919	0.36034	1192.13	6.8421E-13	1.38565E-12
	8378.77422	9.57101E-5	575172.18976	0.35508	1193.492	6.71922E-13	1.37638E-12
	8369.23036	9.34973E-5	562515.29149	0.34727	1194.853	6.54893E-13	1.35474E-12
	8359.70122	9.25256E-5	557303.55238	0.34405	1196.215	6.46611E-13	1.34541E-12
	8350.19377	9.2391E-5	557126.30667	0.34394	1197.577	6.44203E-13	1.34723E-12
	8340.70095	9.22583E-5	556959.82403	0.34384	1198.94	6.41816E-13	1.35092E-12
	8331.23664	9.23033E-5	557864.36803	0.34439	1200.302	6.40673E-13	1.35628E-12
	8321.78685	9.14148E-5	553121.6582	0.34147	1201.665	6.33067E-13	1.35214E-12
	8312.35848	8.95185E-5	542262.30878	0.33476	1203.028	6.18531E-13	1.33649E-12
	8302.95145	8.87341E-5	538119.46046	0.3322	1204.391	6.11724E-13	1.3356E-12
	8293.56569	8.88316E-5	539320.41932	0.33295	1205.754	6.11012E-13	1.34582E-12
	8284.19425	8.87056E-5	539164.84028	0.33285	1207.118	6.08768E-13	1.3486E-12
	8274.84398	8.84869E-5	538443.15332	0.3324	1208.482	6.05897E-13	1.35027E-12
	8265.51478	8.72967E-5	531800.32524	0.3283	1209.846	5.964E-13	1.33936E-12
	8256.2066	8.52468E-5	519898.01057	0.32096	1211.21	5.81084E-13	1.31546E-12
	8246.91936	8.4053E-5	513194.7109	0.31682	1212.574	5.71658E-13	1.3036E-12
	8237.64621	8.4004E-5	513472.85395	0.31699	1213.939	5.70041E-13	1.30519E-12
	8228.39388	8.39323E-5	513611.67589	0.31707	1215.304	5.68276E-13	1.30816E-12
	8219.16232	8.34502E-5	511234.85919	0.31561	1216.669	5.63745E-13	1.31053E-12
	8209.95145	8.22676E-5	504555.61076	0.31148	1218.034	5.54511E-13	1.3001E-12
	8200.76119	8.02924E-5	492993.44732	0.30435	1219.399	5.39986E-13	1.27291E-12
	8191.58478	7.91909E-5	486774.99867	0.30051	1220.765	5.31387E-13	1.26053E-12
	8182.43558	7.89753E-5	485992.33317	0.30002	1222.13	5.28757E-13	1.26323E-12
	8173.30012	7.85491E-5	483910.17012	0.29874	1223.496	5.24731E-13	1.25981E-12
	8164.17836	7.83729E-5	483363.99062	0.2984	1224.863	5.22385E-13	1.26007E-12
	8155.08359	7.72995E-5	477275.36382	0.29464	1226.229	5.14083E-13	1.24854E-12
	8146.00243	7.48497E-5	462664.73645	0.28562	1227.596	4.96683E-13	1.21676E-12
	8136.94147	7.35623E-5	455213.07833	0.28102	1228.963	4.87054E-13	1.2012E-12
	8127.90064	7.36723E-5	456401.11443	0.28176	1230.33	4.867E-13	1.20532E-12
	8118.87989	7.38544E-5	458037.17144	0.28277	1231.697	4.8682E-13	1.21398E-12
	8109.87913	7.40188E-5	459566.50234	0.28371	1233.064	4.86823E-13	1.21951E-12
	8100.89175	7.33721E-5	456056.52651	0.28154	1234.432	4.815E-13	1.20588E-12
	8091.92426	7.20941E-5	448609.80817	0.27695	1235.8	4.72067E-13	1.18443E-12
	8082.9766	7.15809E-5	445909.24093	0.27528	1237.168	4.6767E-13	1.17696E-12
	8074.04872	7.18138E-5	447854.81659	0.27648	1238.536	4.68156E-13	1.18058E-12
	8065.13402	7.23362E-5	451611.15449	0.2788	1239.905	4.70521E-13	1.18837E-12
	8056.24548	7.30266E-5	456424.46759	0.28177	1241.273	4.73965E-13	1.20138E-12
	8047.37004	7.30298E-5	456948.05725	0.28209	1242.642	4.72942E-13	1.20559E-12
	8038.51413	7.23213E-5	453013.49442	0.27966	1244.011	4.67324E-13	1.19382E-12
	8029.67769	7.26585E-5	455626.61917	0.28128	1245.38	4.68471E-13	1.19446E-12
	8020.85422	7.41391E-5	465422.63021	0.28733	1246.75	4.76967E-13	1.21329E-12
	8012.05012	7.57092E-5	475801.33536	0.29373	1248.12	4.86E-13	1.23092E-12
	8003.26533	7.7108E-5	485124.36137	0.29949	1249.49	4.93894E-13	1.24164E-12
	7994.49978	7.74182E-5	487609.95644	0.30102	1250.86	4.94795E-13	1.24233E-12
	7985.75342	7.69682E-5	485306.9064	0.2996	1252.23	4.90844E-13	1.23781E-12
	7977.02616	7.76037E-5	489849.1286	0.30241	1253.6	4.93815E-13	1.24428E-12
	7968.31162	7.91271E-5	500011.16297	0.30868	1254.971	5.0241E-13	1.26072E-12
	7959.61609	8.06816E-5	510391.26143	0.31509	1256.342	5.11162E-13	1.27802E-12
	7950.93952	8.21943E-5	520528.20475	0.32134	1257.713	5.19612E-13	1.29477E-12
	7942.27554	8.2463E-5	522799.19073	0.32275	1259.085	5.20174E-13	1.29431E-12
	7933.63672	8.19072E-5	519841.25748	0.32092	1260.456	5.15545E-13	1.28182E-12
	7925.01038	8.26749E-5	525284.45481	0.32428	1261.828	5.19246E-13	1.28839E-12
	7916.40279	8.42036E-5	535579.2836	0.33064	1263.2	5.27699E-13	1.30671E-12
	7907.81387	8.51518E-5	542198.24298	0.33472	1264.572	5.32484E-13	1.31522E-12
	7899.24357	8.57308E-5	546477.61386	0.33736	1265.944	5.34944E-13	1.32211E-12
	7890.6856	8.60214E-5	548924.3413	0.33887	1267.317	5.35594E-13	1.32797E-12
	7882.14615	8.59938E-5	549343.04884	0.33913	1268.69	5.34265E-13	1.32093E-12
	7873.62517	8.62115E-5	551329.32412	0.34036	1270.063	5.34459E-13	1.31505E-12
	7865.12259	8.70142E-5	557064.3457	0.3439	1271.436	5.38271E-13	1.32296E-12
	7856.63835	8.81884E-5	565190.98994	0.34892	1272.809	5.44358E-13	1.33913E-12
	7848.16624	8.93466E-5	573232.17409	0.35388	1274.183	5.50319E-13	1.35453E-12
	7839.71238	8.94555E-5	574550.00981	0.35469	1275.557	5.49803E-13	1.35272E-12
	7831.27671	8.85882E-5	569592.49728	0.35163	1276.931	5.43302E-13	1.33568E-12
	7822.85918	8.88423E-5	571840.47081	0.35302	1278.305	5.43689E-13	1.33359E-12
	7814.45972	9.0255E-5	581557.79824	0.35902	1279.679	5.51149E-13	1.35117E-12
	7806.07219	9.13558E-5	589283.38146	0.36379	1281.054	5.56674E-13	1.36652E-12
	7797.70264	9.20755E-5	594563.26245	0.36705	1282.429	5.59857E-13	1.36946E-12
	7789.35102	9.2139E-5	595611.53282	0.3677	1283.804	5.59044E-13	1.36322E-12
	7781.01727	9.15347E-5	592338.93009	0.36568	1285.179	5.5419E-13	1.35649E-12
	7772.70134	9.14637E-5	592512.47539	0.36578	1286.554	5.52577E-13	1.35707E-12
	7764.39713	9.18796E-5	595843.27639	0.36784	1287.93	5.53904E-13	1.36156E-12
	7756.11065	9.22029E-5	598578.8618	0.36953	1289.306	5.54667E-13	1.36362E-12
	7747.84184	9.25819E-5	601680.84585	0.37144	1290.682	5.5576E-13	1.36559E-12
	7739.59064	9.20426E-5	598813.49507	0.36967	1292.058	5.51347E-13	1.35914E-12
	7731.35101	9.04441E-5	589041.19278	0.36364	1293.435	5.40619E-13	1.33735E-12
	7723.13488	8.95028E-5	583530.80287	0.36024	1294.811	5.33856E-13	1.31915E-12
	7714.93024	8.94381E-5	583728.83721	0.36036	1296.188	5.32337E-13	1.31793E-12
	7706.74301	8.95716E-5	585221.53253	0.36128	1297.565	5.32001E-13	1.32228E-12
	7698.56722	8.99822E-5	588528.1464	0.36332	1298.943	5.33306E-13	1.32231E-12
	7690.41467	8.9602E-5	586662.87619	0.36217	1300.32	5.29928E-13	1.31406E-12
	7682.27346	8.79719E-5	576600.69196	0.35596	1301.698	5.19187E-13	1.29761E-12
	7674.14947	8.7117E-5	571601.76659	0.35287	1303.076	5.13055E-13	1.28706E-12
	7666.04265	8.73969E-5	574044.20232	0.35438	1304.454	5.13616E-13	1.28587E-12
	7657.95294	8.74897E-5	575260.94328	0.35513	1305.832	5.13077E-13	1.28496E-12
	7649.87443	8.74863E-5	575845.86623	0.35549	1307.211	5.11975E-13	1.28783E-12
	7641.81878	8.69554E-5	572955.00772	0.35371	1308.589	5.07797E-13	1.28706E-12
	7633.77426	8.53862E-5	563208.0941	0.34769	1309.968	4.97584E-13	1.26527E-12
	7625.74666	8.41977E-5	555953.59426	0.34321	1311.347	4.89626E-13	1.23773E-12
	7617.73011	8.38367E-5	554152.75389	0.3421	1312.727	4.86503E-13	1.22456E-12
	7609.7362	8.34794E-5	552370.28161	0.341	1314.106	4.83413E-13	1.22054E-12
	7601.75327	8.27545E-5	548148.70241	0.3384	1315.486	4.7821E-13	1.20837E-12
	7593.78707	8.11109E-5	537825.94909	0.33202	1316.866	4.67731E-13	1.17709E-12
	7585.83754	7.91E-5	525041.54028	0.32413	1318.246	4.5518E-13	1.14251E-12
	7577.90465	7.81734E-5	519434.5308	0.32067	1319.626	4.48908E-13	1.1197E-12
	7569.9826	7.81457E-5	519793.79619	0.32089	1321.007	4.47811E-13	1.10288E-12
	7562.07709	7.76275E-5	516886.85026	0.3191	1322.388	4.43913E-13	1.08253E-12
	7554.18808	7.61994E-5	507907.16206	0.31355	1323.769	4.34837E-13	1.05397E-12
	7546.31551	7.39454E-5	493397.60418	0.3046	1325.15	4.21096E-13	1.01702E-12
	7538.45933	7.1327E-5	476422.15037	0.29412	1326.531	4.0534E-13	9.78068E-13
	7530.61383	6.97099E-5	466105.9281	0.28775	1327.913	3.95326E-13	9.43928E-13
	7522.78463	6.88814E-5	461045.72333	0.28462	1329.295	3.89816E-13	9.11365E-13
	7514.9717	6.76805E-5	453479.03829	0.27995	1330.677	3.82224E-13	8.77235E-13
	7507.17498	6.59576E-5	442394.05957	0.27311	1332.059	3.71722E-13	8.39066E-13
	7499.39442	6.36693E-5	427488.92542	0.26391	1333.441	3.58082E-13	7.89525E-13
	7491.62436	6.11161E-5	410771.58058	0.25359	1334.824	3.43011E-13	7.35985E-13
	7483.87039	5.89134E-5	396377.14499	0.2447	1336.207	3.29964E-13	6.88557E-13
	7476.13245	5.71342E-5	384803.98548	0.23756	1337.59	3.19337E-13	6.44982E-13
	7468.41049	5.55331E-5	374407.5892	0.23114	1338.973	3.09748E-13	5.96843E-13
	7460.70447	5.38935E-5	363728.35508	0.22455	1340.356	2.99982E-13	5.44112E-13
	7453.00878	5.18043E-5	349989.33206	0.21606	1341.74	2.87759E-13	4.92461E-13
	7445.32895	4.93911E-5	334030.21741	0.20621	1343.124	2.73789E-13	4.38495E-13
	7437.66493	4.76706E-5	322726.87622	0.19923	1344.508	2.63709E-13	3.86627E-13
	7430.01667	4.67631E-5	316908.47073	0.19564	1345.892	2.58156E-13	3.401E-13
	7422.37862	4.60138E-5	312151.78169	0.1927	1347.277	2.53498E-13	2.88094E-13
	7414.76175	4.52852E-5	307524.55892	0.18985	1348.661	2.48972E-13	2.26419E-13
	7407.15502	4.39667E-5	298877.4788	0.18451	1350.046	2.41227E-13	1.59744E-13
	7399.56387	4.19743E-5	285626.16632	0.17633	1351.431	2.29824E-13	4.59648E-14
	7391.9828	4.06306E-5	276766.02736	0.17086	1352.817	2.22011E-13	4.44022E-14
	7384.42271	3.99295E-5	272268.96062	0.16808	1354.202	2.17734E-13	4.35469E-14
	7376.87262	3.93686E-5	268718.87641	0.16589	1355.588	2.14237E-13	4.28474E-14
	7369.33795	3.90196E-5	266609.42724	0.16459	1356.974	2.11904E-13	4.23809E-14
	7361.81866	3.78485E-5	258871.83254	0.15981	1358.36	2.05125E-13	4.10251E-14
	7354.3147	3.58443E-5	245413.27295	0.1515	1359.746	1.93867E-13	3.87734E-14
	7346.82602	3.45291E-5	236649.93598	0.14609	1361.132	1.86374E-13	3.72748E-14
	7339.34719	3.40095E-5	233326.5116	0.14404	1362.519	1.83196E-13	3.66392E-14
	7331.88358	3.32843E-5	228583.5639	0.14111	1363.906	1.78925E-13	0
	7324.43512	3.22411E-5	221643.97678	0.13683	1365.293	1.72965E-13	0
	7316.99643	3.12498E-5	215047.98976	0.13276	1366.681	1.67307E-13	0
	7309.57818	3.02316E-5	208251.96492	0.12856	1368.068	1.61527E-13	0
	7302.16962	2.93002E-5	202040.73171	0.12473	1369.456	1.56233E-13	0
	7294.77606	2.84566E-5	196422.94069	0.12126	1370.844	1.51428E-13	0
	7287.39747	2.7575E-5	190530.16193	0.11762	1372.232	1.4644E-13	0
	7280.03378	2.66829E-5	184553.03801	0.11393	1373.62	1.41417E-13	0
	7272.67967	2.54026E-5	175875.40553	0.10858	1375.009	1.34359E-13	0
	7265.3404	2.38634E-5	165385.25693	0.1021	1376.398	1.25963E-13	0
	7258.01593	2.26904E-5	157414.71982	0.09718	1377.787	1.1953E-13	0
	7250.70622	2.16281E-5	150196.05634	0.09272	1379.176	1.13705E-13	0
	7243.41121	2.04471E-5	142138.0465	0.08775	1380.565	1.0728E-13	0
	7236.12563	1.9402E-5	135008.5203	0.08335	1381.955	1.01592E-13	0
	7228.85992	1.81489E-5	126415.44114	0.07804	1383.344	9.48394E-14	0
	7221.60357	1.67723E-5	116944.26206	0.07219	1384.734	8.747E-14	0
	7214.35657	1.57252E-5	109753.52655	0.06776	1386.125	8.18447E-14	0
	7207.12929	1.46482E-5	102339.09821	0.06318	1387.515	7.60865E-14	0
	7199.9113	1.33119E-5	93096.77612	0.05747	1388.906	6.90073E-14	0
	7192.70775	1.19155E-5	83414.27674	0.0515	1390.297	6.16449E-14	0
	7185.52376	1.06156E-5	74388.89192	0.04592	1391.687	5.48104E-14	0
	7178.3438	9.53614E-6	66891.22264	0.04129	1393.079	4.91384E-14	0
	7171.18332	8.51065E-6	59757.56559	0.03689	1394.47	4.37668E-14	0
	7164.03197	7.3261E-6	51491.52902	0.03179	1395.862	3.76E-14	0
	7156.89488	6.50291E-6	45751.35688	0.02824	1397.254	3.33087E-14	0
	7149.77199	6.32721E-6	44559.56247	0.02751	1398.646	3.23442E-14	0
	7142.66327	5.95539E-6	41982.75429	0.02592	1400.038	3.0383E-14	0
	7135.56867	5.1044E-6	36019.45928	0.02224	1401.43	2.59898E-14	0
	7128.48307	4.35228E-6	30742.59694	0.01898	1402.823	2.21162E-14	0
	7121.41152	4.02396E-6	28451.71835	0.01756	1404.216	2.04073E-14	0
	7114.35399	4.03364E-6	28548.43906	0.01762	1405.609	2.04159E-14	0
	7107.31044	4.08992E-6	28975.46581	0.01789	1407.002	2.06598E-14	0
	7100.27577	3.95261E-6	28030.4241	0.0173	1408.396	1.99267E-14	0
	7093.26006	3.49463E-6	24807.13971	0.01531	1409.789	1.7583E-14	0
	7086.25316	2.96299E-6	21054.01372	0.013	1411.183	1.48787E-14	0
	7079.2601	2.82744E-6	20110.63438	0.01242	1412.577	1.417E-14	0
	7072.27583	2.85959E-6	20359.41691	0.01257	1413.972	1.43028E-14	0
	7065.31032	2.63076E-6	18748.69514	0.01157	1415.366	1.31324E-14	0
	7058.35353	2.30445E-6	16439.32501	0.01015	1416.761	1.14808E-14	0
	7051.41042	2.03964E-6	14564.57695	0.00899	1418.156	1.01416E-14	0
	7044.48097	2.0538E-6	14680.10194	0.00906	1419.551	1.01919E-14	0
	7037.56512	2.2575E-6	16151.95839	0.00997	1420.946	1.11808E-14	0
	7030.65789	2.5197E-6	18045.66862	0.01114	1422.342	1.24549E-14	0
	7023.7642	2.792E-6	20015.49929	0.01236	1423.738	1.37739E-14	0
	7016.88895	2.51887E-6	18075.13378	0.01116	1425.133	1.24021E-14	0
	7010.01731	1.81854E-6	13062.43055	0.00806	1426.53	8.93636E-15	0
	7003.16403	1.65115E-6	11871.7116	0.00733	1427.926	8.09796E-15	0
	6996.31924	1.88884E-6	13593.94539	0.00839	1429.323	9.24557E-15	0
	6989.4927	1.94312E-6	13998.25434	0.00864	1430.719	9.49271E-15	0
	6982.67459	2.12085E-6	15293.58686	0.00944	1432.116	1.03408E-14	0
	6975.86977	2.20812E-6	15938.41565	0.00984	1433.513	1.07453E-14	0
	6969.07334	1.75905E-6	12709.39315	0.00785	1434.911	8.54337E-15	0
	6962.295	1.29681E-6	9378.75483	0.00579	1436.308	6.28611E-15	0
	6955.52498	1.29999E-6	9410.87058	0.00581	1437.706	6.28925E-15	0
	6948.76812	1.45382E-6	10534.76809	0.0065	1439.104	7.01985E-15	0
	6942.02438	1.60129E-6	11614.5784	0.00717	1440.502	7.71687E-15	0
	6935.2889	1.63394E-6	11862.91633	0.00732	1441.901	7.85895E-15	0
	6928.57128	1.51074E-6	10979.12462	0.00678	1443.299	7.25234E-15	0
	6921.86187	1.56422E-6	11378.80321	0.00702	1444.698	7.49453E-15	0
	6915.16544	1.83087E-6	13331.37057	0.00823	1446.097	8.75511E-15	0
	6908.48196	1.78816E-6	13032.99677	0.00805	1447.496	8.53437E-15	0
	6901.80662	1.29429E-6	9442.55469	0.00583	1448.896	6.16534E-15	0
	6895.14892	1.2296E-6	8979.26582	0.00554	1450.295	5.8459E-15	0
	6888.49931	1.61649E-6	11815.94508	0.00729	1451.695	7.67046E-15	0
	6881.86251	1.94653E-6	14242.18586	0.00879	1453.095	9.21879E-15	0
	6875.23848	2.04997E-6	15013.45863	0.00927	1454.495	9.68999E-15	0
	6868.62248	1.66905E-6	12235.45062	0.00755	1455.896	7.87423E-15	0
	6862.0192	1.16252E-6	8530.36249	0.00527	1457.297	5.47397E-15	0
	6855.42861	1.12822E-6	8286.69819	0.00512	1458.698	5.3023E-15	0
	6848.85066	1.3498E-6	9923.66961	0.00613	1460.099	6.33147E-15	0
	6842.28532	1.52194E-6	11200.00361	0.00691	1461.5	7.12526E-15	0
	6835.73256	2.07201E-6	15262.54495	0.00942	1462.901	9.68192E-15	0
	6829.18767	2.3037E-6	16985.48194	0.01049	1464.303	1.0744E-14	0
	6822.65531	1.79461E-6	13244.55126	0.00818	1465.705	8.35366E-15	0
	6816.13543	1.38578E-6	10237.13053	0.00632	1467.107	6.43831E-15	0
	6809.628	1.20665E-6	8922.31045	0.00551	1468.509	5.59534E-15	0
	6803.12835	1.29119E-6	9556.57735	0.0059	1469.912	5.97596E-15	0
	6796.64572	1.55228E-6	11499.99263	0.0071	1471.314	7.17069E-15	0
	6790.17082	1.65757E-6	12291.7189	0.00759	1472.717	7.64247E-15	0
	6783.70825	1.87401E-6	13909.94768	0.00859	1474.12	8.62395E-15	0
	6777.25337	2.06364E-6	15332.07437	0.00947	1475.524	9.47854E-15	0
	6770.81535	1.90031E-6	14132.02949	0.00872	1476.927	8.71178E-15	0
	6764.38497	1.87337E-6	13944.94909	0.00861	1478.331	8.57198E-15	0
	6757.9668	2.03878E-6	15190.6118	0.00938	1479.735	9.31114E-15	0
	6751.56079	2.2341E-6	16661.67355	0.01029	1481.139	1.01838E-14	0
	6745.16692	2.41082E-6	17996.71589	0.01111	1482.543	1.09686E-14	0
	6738.7806	2.37554E-6	17750.10558	0.01096	1483.948	1.07876E-14	0
	6732.40637	2.17966E-6	16301.95163	0.01006	1485.353	9.87938E-15	0
	6726.04418	2.07723E-6	15550.51338	0.0096	1486.758	9.3973E-15	0
	6719.69401	2.1785E-6	16324.099	0.01008	1488.163	9.83687E-15	0
	6713.35582	2.07338E-6	15551.0555	0.0096	1489.568	9.34454E-15	0
	6707.02507	1.68274E-6	12633.05419	0.0078	1490.974	7.56968E-15	0
	6700.70625	1.47878E-6	11112.27239	0.00686	1492.38	6.63963E-15	0
	6694.39933	1.58367E-6	11911.70441	0.00735	1493.786	7.09722E-15	0
	6688.10427	1.85731E-6	13983.07409	0.00863	1495.192	8.3079E-15	0
	6681.82104	2.16285E-6	16298.71092	0.01006	1496.598	9.65644E-15	0
	6675.54514	2.54184E-6	19172.62035	0.01184	1498.005	1.13272E-14	0
	6669.28102	2.83911E-6	21435.05809	0.01323	1499.412	1.26282E-14	0
	6663.02865	3.17493E-6	23992.95146	0.01481	1500.819	1.40954E-14	0
	6656.78799	3.86804E-6	29258.15755	0.01806	1502.226	1.71404E-14	0
	6650.55901	4.2559E-6	32222.08923	0.01989	1503.633	1.88238E-14	0
	6644.33726	4.03224E-6	30557.33823	0.01886	1505.041	1.78012E-14	0
	6638.12715	3.85738E-6	29259.58515	0.01806	1506.449	1.69975E-14	0
	6631.92862	4.18152E-6	31747.90475	0.0196	1507.857	1.83914E-14	0
	6625.74167	4.48505E-6	34084.19953	0.02104	1509.265	1.96896E-14	0
	6619.56625	4.37098E-6	33248.34099	0.02053	1510.673	1.9153E-14	0
	6613.39795	4.15128E-6	31606.6509	0.01951	1512.082	1.81565E-14	0
	6607.24114	3.85673E-6	29391.39008	0.01814	1513.491	1.68368E-14	0
	6601.09578	3.725E-6	28413.90833	0.01754	1514.9	1.62315E-14	0
	6594.96184	3.95715E-6	30212.8308	0.01865	1516.309	1.72111E-14	0
	6588.83496	4.10291E-6	31354.78327	0.01936	1517.719	1.78118E-14	0
	6582.72377	4.10584E-6	31406.3083	0.01939	1519.128	1.77915E-14	0
	6576.61959	4.15577E-6	31817.74769	0.01964	1520.538	1.79745E-14	0
	6570.52672	4.02253E-6	30826.19461	0.01903	1521.948	1.7366E-14	0
	6564.44082	4.16066E-6	31914.30254	0.0197	1523.359	1.79291E-14	0
	6558.37048	4.85956E-6	37309.69838	0.02303	1524.769	2.0902E-14	0
	6552.30707	5.16017E-6	39654.31382	0.02448	1526.18	2.2154E-14	0
	6546.25485	4.67943E-6	35993.25716	0.02222	1527.591	2.0053E-14	0
	6540.21381	4.23088E-6	32573.14863	0.02011	1529.002	1.80973E-14	0
	6534.18391	4.31947E-6	33285.86598	0.02055	1530.413	1.84422E-14	0
	6528.16085	4.81992E-6	37176.63465	0.02295	1531.825	2.0541E-14	0
	6522.15315	5.51682E-6	42591.03771	0.02629	1533.236	2.34677E-14	0
	6516.15224	6.07158E-6	46917.14584	0.02896	1534.648	2.57801E-14	0
	6510.16236	6.28312E-6	48596.45453	0.03	1536.06	2.66293E-14	0
	6504.17926	5.89193E-6	45612.70005	0.02816	1537.473	2.49254E-14	0
	6498.21137	5.37372E-6	41639.1387	0.02571	1538.885	2.26915E-14	0
	6492.2502	5.66056E-6	43902.02729	0.0271	1540.298	2.38589E-14	0
	6486.29996	6.27736E-6	48730.4893	0.03008	1541.711	2.64102E-14	0
	6480.36062	6.24123E-6	48494.38322	0.02994	1543.124	2.62101E-14	0
	6474.42795	6.0195E-6	46814.40698	0.0289	1544.538	2.52327E-14	0
	6468.51032	6.2579E-6	48713.05622	0.03007	1545.951	2.61841E-14	0
	6462.59932	6.29138E-6	49018.39682	0.03026	1547.365	2.6276E-14	0
	6456.69912	6.15272E-6	47981.91057	0.02962	1548.779	2.56501E-14	0
	6450.80967	6.13161E-6	47860.94616	0.02955	1550.193	2.55154E-14	0
	6444.92681	6.02039E-6	47035.67134	0.02904	1551.608	2.50069E-14	0
	6439.05882	6.04494E-6	47270.49553	0.02918	1553.022	2.50632E-14	0
	6433.19736	6.15086E-6	48142.63653	0.02972	1554.437	2.5456E-14	0
	6427.34656	6.3792E-6	49975.28281	0.03085	1555.852	2.6353E-14	0
	6421.5064	6.71222E-6	52632.04491	0.03249	1557.267	2.76784E-14	0
	6415.67683	6.89453E-6	54110.6789	0.0334	1558.682	2.83785E-14	0
	6409.85374	6.95668E-6	54648.06513	0.03374	1560.098	2.85824E-14	0
	6404.04121	6.69738E-6	52658.84136	0.03251	1561.514	2.74671E-14	0
	6398.2392	6.59949E-6	51936.22978	0.03206	1562.93	2.70166E-14	0
	6392.44771	7.05127E-6	55541.94201	0.03429	1564.346	2.88139E-14	0
	6386.6626	7.39487E-6	58301.15696	0.03599	1565.763	3.01633E-14	0
	6380.89204	7.2863E-6	57497.15466	0.0355	1567.179	2.96667E-14	0
	6375.12782	7.02854E-6	55513.26803	0.03427	1568.596	2.85656E-14	0
	6369.37401	7.10576E-6	56173.9075	0.03468	1570.013	2.88273E-14	0
	6363.62653	7.37024E-6	58317.37173	0.036	1571.431	2.98464E-14	0
	6357.89345	7.65858E-6	60653.45188	0.03744	1572.848	3.09581E-14	0
	6352.16666	7.85054E-6	62229.79378	0.03842	1574.266	3.16769E-14	0
	6346.4542	8.0699E-6	64026.23527	0.03953	1575.683	3.25035E-14	0
	6340.74397	8.08453E-6	64200.01746	0.03963	1577.102	3.25039E-14	0
	6335.04802	7.4259E-6	59022.84194	0.03644	1578.52	2.98023E-14	0
	6329.36229	7.03868E-6	55995.36999	0.03457	1579.938	2.81975E-14	0
