LASERINDEX	WAVENUMBER	SPWNPOWER	SpWNQuant	SpQuantNorm	Wavelength	SpecWL	FluAbsRatio
Integer Laser Wavelength	cm^-1	nW/cm-1	photon/s/cm^-1	Norm intensity	nm	W/nm	Experimental Ratio
783	11340.38471	1.58664E-5	70448.58995	0.04349	881.8043	2.04049E-13	5.3522E-13
	11323.51253	1.64523E-5	73158.65438	0.04516	883.1182	2.10954E-13	5.57126E-13
	11306.68664	1.7125E-5	76263.34845	0.04708	884.4324	2.18928E-13	5.82801E-13
	11289.90941	1.74299E-5	77736.48831	0.04799	885.7467	2.22165E-13	5.98344E-13
	11273.17808	1.77753E-5	79394.78545	0.04901	887.0613	2.25897E-13	6.17929E-13
	11256.495	1.78616E-5	79898.34993	0.04932	888.376	2.26322E-13	6.21085E-13
	11239.85743	1.76706E-5	79161.12304	0.04887	889.691	2.23241E-13	6.08872E-13
	11223.26646	1.76407E-5	79143.73853	0.04886	891.0062	2.22205E-13	6.06744E-13
	11206.72314	1.77397E-5	79705.42037	0.04921	892.3215	2.22794E-13	6.1179E-13
	11190.22476	1.79832E-5	80918.78916	0.04995	893.6371	2.25188E-13	6.22393E-13
	11173.77239	1.80393E-5	81290.80208	0.05018	894.9529	2.25227E-13	6.27245E-13
	11157.36583	1.69822E-5	76639.49519	0.04731	896.2689	2.11406E-13	5.90086E-13
	11141.00614	1.50966E-5	68230.22932	0.04212	897.585	1.87383E-13	5.2176E-13
	11124.69065	1.38061E-5	62488.89545	0.03858	898.9014	1.70862E-13	4.76346E-13
	11108.4204	1.32508E-5	60063.3655	0.03708	900.218	1.63511E-13	4.58565E-13
	11092.19399	1.27824E-5	58024.92182	0.03582	901.5349	1.5727E-13	4.42995E-13
	11076.01491	1.26277E-5	57406.39293	0.03544	902.8518	1.54914E-13	4.37892E-13
	11059.87807	1.2648E-5	57582.65464	0.03555	904.1691	1.54711E-13	4.39232E-13
	11043.78696	1.21784E-5	55525.6103	0.03428	905.4865	1.48534E-13	4.22968E-13
	11027.74017	1.18677E-5	54187.50289	0.03345	906.8041	1.44324E-13	4.11627E-13
	11011.73752	1.21128E-5	55387.2326	0.03419	908.1219	1.46878E-13	4.18713E-13
	10995.77883	1.24484E-5	57004.41363	0.03519	909.4399	1.5051E-13	4.29844E-13
	10979.86271	1.30733E-5	59952.81528	0.03701	910.7582	1.57608E-13	4.522E-13
	10963.9914	1.36264E-5	62579.63092	0.03863	912.0766	1.63802E-13	4.71991E-13
	10948.16231	1.38606E-5	63747.34545	0.03935	913.3953	1.66136E-13	4.81034E-13
	10932.37767	1.42621E-5	65688.50561	0.04055	914.7141	1.70456E-13	4.94784E-13
	10916.6349	1.46988E-5	67797.39315	0.04185	916.0332	1.7517E-13	5.09666E-13
	10900.93503	1.50629E-5	69577.06917	0.04295	917.3525	1.78993E-13	5.22728E-13
	10885.27906	1.54957E-5	71679.16287	0.04425	918.6719	1.83608E-13	5.36646E-13
	10869.66446	1.56032E-5	72279.87659	0.04462	919.9916	1.84351E-13	5.37804E-13
	10854.09224	1.51945E-5	70487.52824	0.04352	921.3115	1.79008E-13	5.21252E-13
	10838.56339	1.46721E-5	68161.611	0.04208	922.6315	1.72359E-13	5.0218E-13
	10823.0754	1.40696E-5	65456.41448	0.04041	923.9518	1.6481E-13	4.80201E-13
	10807.62928	1.38464E-5	64509.82838	0.03982	925.2723	1.61732E-13	4.70133E-13
	10792.22485	1.40126E-5	65377.41531	0.04036	926.593	1.63207E-13	4.74386E-13
	10776.86195	1.35856E-5	63475.87372	0.03919	927.9139	1.57785E-13	4.58465E-13
	10761.54041	1.27821E-5	59806.5694	0.03692	929.235	1.48031E-13	4.28785E-13
	10746.26006	1.23531E-5	57881.54681	0.03573	930.5563	1.42656E-13	4.12609E-13
	10731.01959	1.21556E-5	57036.9526	0.03521	931.8779	1.39978E-13	4.04534E-13
	10715.82114	1.21326E-5	57009.8218	0.03519	933.1996	1.39317E-13	4.02239E-13
	10700.66339	1.23048E-5	57900.83971	0.03574	934.5215	1.40895E-13	4.06756E-13
	10685.54617	1.19968E-5	56531.43222	0.0349	935.8436	1.36981E-13	3.94873E-13
	10670.4682	1.1346E-5	53540.27135	0.03305	937.166	1.29184E-13	3.71551E-13
	10655.43158	1.13238E-5	53510.63885	0.03303	938.4885	1.28568E-13	3.68436E-13
	10640.43388	1.17723E-5	55708.57754	0.03439	939.8113	1.33284E-13	3.80353E-13
	10625.47722	1.22851E-5	58216.99703	0.03594	941.1342	1.38699E-13	3.95099E-13
	10610.55916	1.28558E-5	61007.34603	0.03766	942.4574	1.44736E-13	4.11631E-13
	10595.68069	1.32243E-5	62844.176	0.0388	943.7808	1.48467E-13	4.20774E-13
	10580.84277	1.36035E-5	64736.95092	0.03996	945.1043	1.52297E-13	4.29948E-13
	10566.043	1.45612E-5	69391.53284	0.04284	946.4281	1.62563E-13	4.57374E-13
	10551.28234	1.58537E-5	75656.6045	0.04671	947.7521	1.76499E-13	4.94038E-13
	10536.56176	1.72586E-5	82476.06817	0.05092	949.0762	1.91604E-13	5.32742E-13
	10521.87888	1.93783E-5	92734.76021	0.05725	950.4006	2.14537E-13	5.92949E-13
	10507.23465	2.16876E-5	103930.51567	0.06416	951.7252	2.39435E-13	6.58051E-13
	10492.62893	2.3616E-5	113329.32368	0.06996	953.05	2.60001E-13	7.10473E-13
	10478.06046	2.6264E-5	126211.99767	0.07792	954.3751	2.88352E-13	7.84912E-13
	10463.5313	2.97203E-5	143019.80094	0.08829	955.7003	3.25395E-13	8.82311E-13
	10449.04128	3.32324E-5	160142.29036	0.09886	957.0256	3.6284E-13	9.77812E-13
	10434.58698	3.68349E-5	177748.30132	0.10973	958.3513	4.01061E-13	1.07527E-12
	10420.17153	4.00238E-5	193403.46889	0.1194	959.6771	4.34578E-13	1.15913E-12
	10405.7937	4.25428E-5	205859.78055	0.12709	961.0031	4.60656E-13	1.22373E-12
	10391.45332	4.52222E-5	219127.14034	0.13528	962.3293	4.8832E-13	1.29423E-12
	10377.14919	4.80439E-5	233120.52843	0.14392	963.6558	5.17361E-13	1.36553E-12
	10362.8833	5.06228E-5	245972.19159	0.15185	964.9824	5.43635E-13	1.42894E-12
	10348.65338	5.30054E-5	257903.20309	0.15921	966.3093	5.67659E-13	1.48665E-12
	10334.46034	5.456E-5	265832.20515	0.16411	967.6364	5.82707E-13	1.51979E-12
	10320.30512	5.579E-5	272197.65106	0.16804	968.9636	5.94212E-13	1.54196E-12
	10306.18543	5.83699E-5	285175.25134	0.17605	970.2911	6.1999E-13	1.59541E-12
	10292.10327	6.19903E-5	303277.72867	0.18723	971.6187	6.56647E-13	1.67514E-12
	10278.05637	6.64539E-5	325559.39368	0.20098	972.9466	7.02009E-13	1.78111E-12
	10264.04565	7.24853E-5	355592.20799	0.21952	974.2747	7.63637E-13	1.92756E-12
	10250.07098	7.86809E-5	386512.10195	0.23861	975.603	8.26652E-13	2.07673E-12
	10236.13222	8.45716E-5	416015.22359	0.25682	976.9315	8.86127E-13	2.21766E-12
	10222.23026	9.20835E-5	453583.3675	0.28002	978.2601	9.62218E-13	2.39753E-12
	10208.36185	1.00274E-4	494600.74198	0.30534	979.5891	1.04497E-12	2.59456E-12
	10194.52998	1.07023E-4	528605.49151	0.32633	980.9182	1.11228E-12	2.75422E-12
	10180.73347	1.11399E-4	550965.62916	0.34013	982.2475	1.15462E-12	2.8539E-12
	10166.97218	1.11123E-4	550342.64108	0.33975	983.577	1.14865E-12	2.83824E-12
	10153.24599	1.06664E-4	528974.12234	0.32656	984.9067	1.09958E-12	2.71474E-12
	10139.55475	1.02163E-4	507338.21456	0.3132	986.2366	1.05035E-12	2.58736E-12
	10125.89731	9.91576E-5	493075.51744	0.3044	987.5668	1.0167E-12	2.49748E-12
	10112.27558	9.63864E-5	479940.7407	0.29629	988.8971	9.85629E-13	2.42092E-12
	10098.68842	9.34991E-5	466190.19067	0.2878	990.2276	9.53536E-13	2.35157E-12
	10085.13569	8.99483E-5	449088.51235	0.27724	991.5583	9.14864E-13	2.26774E-12
	10071.61624	8.56041E-5	427972.72671	0.26421	992.8893	8.68346E-13	2.15905E-12
	10058.13097	8.21903E-5	411456.82065	0.25401	994.2205	8.31487E-13	2.07014E-12
	10044.68075	7.98372E-5	400211.76265	0.24707	995.5518	8.05522E-13	2.01036E-12
	10031.26344	7.76832E-5	389935.16532	0.24072	996.8834	7.81697E-13	1.94941E-12
	10017.88092	7.56648E-5	380310.65518	0.23478	998.2151	7.59356E-13	1.88446E-12
	10004.53105	7.27908E-5	366353.45715	0.22617	999.5471	7.28567E-13	1.80888E-12
	9991.21772	6.92109E-5	348800.06636	0.21533	1000.879	6.90893E-13	1.7207E-12
	9977.92882	6.69602E-5	337906.76415	0.2086	1002.212	6.66649E-13	1.66018E-12
	9964.68516	6.57601E-5	332291.5617	0.20514	1003.544	6.52964E-13	1.62809E-12
	9951.4667	6.44459E-5	326083.56428	0.20131	1004.877	6.38219E-13	1.59335E-12
	9938.28326	6.324E-5	320406.20216	0.1978	1006.21	6.24618E-13	1.55952E-12
	9925.13471	6.16299E-5	312662.29153	0.19302	1007.543	6.07105E-13	1.51963E-12
	9912.01108	5.98132E-5	303847.88072	0.18758	1008.877	5.87653E-13	1.47295E-12
	9898.93191	5.90066E-5	300146.18468	0.18529	1010.21	5.78199E-13	1.4466E-12
	9885.87743	5.89785E-5	300399.52283	0.18545	1011.544	5.764E-13	1.4416E-12
	9872.85734	5.93468E-5	302674.29755	0.18685	1012.878	5.78473E-13	1.4461E-12
	9859.87151	6.04806E-5	308862.9976	0.19067	1014.212	5.87975E-13	1.46375E-12
	9846.91009	6.1639E-5	315192.78009	0.19458	1015.547	5.97662E-13	1.48188E-12
	9833.99237	6.23755E-5	319377.69469	0.19717	1016.881	6.03217E-13	1.48996E-12
	9821.09886	6.42572E-5	329444.61962	0.20338	1018.216	6.19786E-13	1.52175E-12
	9808.23912	6.79003E-5	348579.17981	0.21519	1019.551	6.53212E-13	1.59421E-12
	9795.40341	7.26182E-5	373287.73775	0.23045	1020.887	6.96771E-13	1.68744E-12
	9782.61082	7.81404E-5	402199.46569	0.2483	1022.222	7.47799E-13	1.79158E-12
	9769.84206	8.3563E-5	430672.42671	0.26587	1023.558	7.97607E-13	1.88928E-12
	9757.10659	8.86432E-5	457451.67707	0.2824	1024.894	8.43893E-13	1.9784E-12
	9744.40428	9.52796E-5	492340.48974	0.30394	1026.23	9.04713E-13	2.10468E-12
	9731.73499	1.03368E-4	534832.00413	0.33017	1027.566	9.78966E-13	2.26674E-12
	9719.09861	1.11232E-4	576268.12224	0.35576	1028.902	1.05071E-12	2.42278E-12
	9706.48558	1.18545E-4	614951.24667	0.37964	1030.239	1.11688E-12	2.56218E-12
	9693.90525	1.23283E-4	640359.41719	0.39532	1031.576	1.15851E-12	2.64666E-12
	9681.35748	1.24535E-4	647702.91228	0.39986	1032.913	1.16725E-12	2.66255E-12
	9668.84216	1.25374E-4	652909.03831	0.40307	1034.25	1.17207E-12	2.67433E-12
	9656.34982	1.26326E-4	658721.61187	0.40666	1035.588	1.17793E-12	2.68951E-12
	9643.88973	1.25667E-4	656127.87712	0.40506	1036.926	1.16876E-12	2.67636E-12
	9631.46175	1.23809E-4	647262.22702	0.39958	1038.264	1.14851E-12	2.6431E-12
	9619.06576	1.19982E-4	628064.90617	0.38773	1039.602	1.11015E-12	2.56458E-12
	9606.70164	1.1437E-4	599456.40558	0.37007	1040.94	1.0555E-12	2.44545E-12
	9594.36005	1.09417E-4	574237.13835	0.3545	1042.279	1.00721E-12	2.34076E-12
	9582.05932	1.05255E-4	553099.08537	0.34145	1043.617	9.66404E-13	2.25498E-12
	9569.78093	1.01462E-4	533856.07032	0.32957	1044.956	9.292E-13	2.17957E-12
	9557.53397	9.78134E-5	515315.58068	0.31813	1046.295	8.93491E-13	2.10757E-12
	9545.3092	9.31186E-5	491210.19002	0.30325	1047.635	8.48431E-13	2.00844E-12
	9533.12475	8.78626E-5	464076.46468	0.28649	1048.974	7.98499E-13	1.89241E-12
	9520.9623	8.41864E-5	445227.35173	0.27486	1050.314	7.63139E-13	1.80817E-12
	9508.83085	8.19661E-5	434038.29823	0.26795	1051.654	7.4112E-13	1.75567E-12
	9496.73028	7.98151E-5	423186.2839	0.26125	1052.994	7.19835E-13	1.7103E-12
	9484.65146	7.77202E-5	412603.75125	0.25472	1054.335	6.9916E-13	1.66758E-12
	9472.61231	7.50146E-5	398746.60873	0.24616	1055.675	6.73109E-13	1.60849E-12
	9460.59473	7.16734E-5	381469.78168	0.2355	1057.016	6.41497E-13	1.53485E-12
	9448.60761	6.96393E-5	371114.04626	0.2291	1058.357	6.21713E-13	1.49058E-12
	9436.65082	6.88931E-5	367602.74473	0.22694	1059.698	6.13496E-13	1.4767E-12
	9424.71537	6.80766E-5	363705.94461	0.22453	1061.04	6.04692E-13	1.45816E-12
	9412.81894	6.73505E-5	360281.29622	0.22242	1062.381	5.96733E-13	1.43671E-12
	9400.94367	6.62314E-5	354742.73628	0.219	1063.723	5.85339E-13	1.40747E-12
	9389.09832	6.4211E-5	344355.00152	0.21259	1065.065	5.66053E-13	1.36097E-12
	9377.28278	6.28036E-5	337231.59658	0.20819	1066.407	5.52254E-13	1.33213E-12
	9365.48818	6.23886E-5	335425.24455	0.20707	1067.75	5.47225E-13	1.32461E-12
	9353.73195	6.19763E-5	333627.32823	0.20596	1069.092	5.42245E-13	1.3124E-12
	9341.99648	6.12136E-5	329935.608	0.20368	1070.435	5.34229E-13	1.29535E-12
	9330.29041	5.96159E-5	321727.22465	0.19862	1071.778	5.18982E-13	1.26389E-12
	9318.61365	5.74307E-5	310322.62217	0.19158	1073.121	4.98708E-13	1.21646E-12
	9306.95742	5.56601E-5	301132.29263	0.1859	1074.465	4.82125E-13	1.17583E-12
	9295.3303	5.41905E-5	293547.7867	0.18122	1075.809	4.68223E-13	1.14377E-12
	9283.74083	5.28211E-5	286487.13143	0.17686	1077.152	4.55254E-13	1.11438E-12
	9272.17162	5.18197E-5	281406.43588	0.17372	1078.496	4.4551E-13	1.09146E-12
	9260.62263	5.03978E-5	274026.04662	0.16917	1079.841	4.32207E-13	1.05957E-12
	9249.11093	4.84371E-5	263693.4028	0.16279	1081.185	4.14361E-13	1.01632E-12
	9237.61928	4.70642E-5	256537.77177	0.15837	1082.53	4.01616E-13	9.84597E-13
	9226.15615	4.63511E-5	252964.87824	0.15617	1083.875	3.9455E-13	9.6574E-13
	9214.72144	4.59605E-5	251144.46988	0.15504	1085.22	3.90256E-13	9.53345E-13
	9203.31503	4.58194E-5	250683.76862	0.15476	1086.565	3.88095E-13	9.47052E-13
	9191.92838	4.52118E-5	247665.97398	0.15289	1087.911	3.82002E-13	9.3154E-13
	9180.5783	4.40805E-5	241767.13571	0.14925	1089.256	3.71524E-13	9.03379E-13
	9169.24781	4.34014E-5	238336.61924	0.14714	1090.602	3.64898E-13	8.83052E-13
	9157.94525	4.32318E-5	237698.02673	0.14674	1091.948	3.62576E-13	8.73543E-13
	9146.66215	4.3481E-5	239363.20745	0.14777	1093.295	3.63768E-13	8.72507E-13
	9135.41517	4.41554E-5	243374.92496	0.15025	1094.641	3.68502E-13	8.78334E-13
	9124.18749	4.43807E-5	244917.82837	0.1512	1095.988	3.69473E-13	8.74253E-13
	9112.98737	4.41047E-5	243693.74648	0.15044	1097.335	3.66274E-13	8.61483E-13
	9101.81472	4.45274E-5	246331.52978	0.15207	1098.682	3.68878E-13	8.61054E-13
	9090.66943	4.58148E-5	253764.66237	0.15666	1100.029	3.78615E-13	8.75893E-13
	9079.54315	4.75396E-5	263640.74716	0.16276	1101.377	3.91908E-13	8.99619E-13
	9068.44408	4.96802E-5	275849.1054	0.17029	1102.725	4.08554E-13	9.2887E-13
	9057.37211	5.15343E-5	286493.86588	0.17687	1104.073	4.22767E-13	9.49742E-13
	9046.32715	5.32381E-5	296326.99885	0.18294	1105.421	4.3568E-13	9.66489E-13
	9035.30908	5.5931E-5	311695.3634	0.19242	1106.769	4.56603E-13	1.00061E-12
	9024.30969	5.95326E-5	332170.88157	0.20506	1108.118	4.84823E-13	1.04965E-12
	9013.33703	6.36653E-5	355662.29887	0.21957	1109.467	5.17218E-13	1.10516E-12
	9002.39104	6.79869E-5	380266.4263	0.23475	1110.816	5.50986E-13	1.1607E-12
	8991.47159	7.15403E-5	400627.7601	0.24732	1112.165	5.78379E-13	1.19905E-12
	8980.5786	7.45824E-5	418169.65603	0.25815	1113.514	6.01513E-13	1.22835E-12
	8969.70393	7.83139E-5	439624.32228	0.2714	1114.864	6.30079E-13	1.27179E-12
	8958.85556	8.23246E-5	462698.32968	0.28564	1116.214	6.60746E-13	1.31732E-12
	8948.0334	8.58852E-5	483293.87599	0.29836	1117.564	6.87659E-13	1.35086E-12
	8937.23736	8.89193E-5	500972.14285	0.30927	1118.914	7.10236E-13	1.37667E-12
	8926.46733	9.02408E-5	509030.78706	0.31425	1120.264	7.19055E-13	1.37999E-12
	8915.71529	8.98688E-5	507543.95401	0.31333	1121.615	7.14367E-13	1.35965E-12
	8904.98911	9.02241E-5	510163.94669	0.31495	1122.966	7.15466E-13	1.34876E-12
	8894.28871	9.16461E-5	518828.17296	0.3203	1124.317	7.24997E-13	1.35225E-12
	8883.614	9.2732E-5	525606.22414	0.32448	1125.668	7.31828E-13	1.35073E-12
	8872.957	9.34994E-5	530592.68944	0.32756	1127.02	7.36115E-13	1.34744E-12
	8862.3334	9.30838E-5	528867.54459	0.32649	1128.371	7.31089E-13	1.33206E-12
	8851.72737	9.11249E-5	518358.10331	0.32	1129.723	7.13992E-13	1.29529E-12
	8841.1467	8.98093E-5	511485.7493	0.31576	1131.075	7.02002E-13	1.26748E-12
	8830.59129	8.92784E-5	509069.85058	0.31427	1132.427	6.96187E-13	1.25278E-12
	8820.05327	8.82666E-5	503901.9816	0.31108	1133.78	6.86656E-13	1.23026E-12
	8809.54038	8.70322E-5	497448.02713	0.3071	1135.133	6.7544E-13	1.20225E-12
	8799.06026	8.49557E-5	486157.37574	0.30013	1136.485	6.57756E-13	1.16727E-12
	8788.5896	8.18931E-5	469189.91734	0.28965	1137.839	6.32536E-13	1.12239E-12
	8778.15153	7.93534E-5	455179.91162	0.281	1139.192	6.11465E-13	1.08189E-12
	8767.73823	7.74122E-5	444572.37291	0.27445	1140.545	5.95092E-13	1.04857E-12
	8757.34194	7.54615E-5	433884.05237	0.26786	1141.899	5.78722E-13	1.01649E-12
	8746.97027	7.34813E-5	422999.70268	0.26114	1143.253	5.62202E-13	9.8698E-13
	8736.62314	7.08821E-5	408520.62213	0.2522	1144.607	5.41033E-13	9.47912E-13
	8726.30046	6.75569E-5	389816.75994	0.24065	1145.961	5.14435E-13	8.96739E-13
	8715.99455	6.50338E-5	375701.45394	0.23194	1147.316	4.94052E-13	8.58721E-13
	8705.71295	6.35482E-5	367552.48459	0.22691	1148.671	4.81628E-13	8.34696E-13
	8695.45558	6.21384E-5	359822.86005	0.22213	1150.026	4.69835E-13	8.11182E-13
	8685.22235	6.0903E-5	353084.51979	0.21797	1151.381	4.5941E-13	7.91834E-13
	8675.01319	5.92751E-5	344050.88481	0.2124	1152.736	4.4608E-13	7.70546E-13
	8664.82048	5.7183E-5	332298.07562	0.20514	1154.092	4.29325E-13	7.4414E-13
	8654.65919	5.5905E-5	325253.32244	0.20079	1155.447	4.18746E-13	7.27069E-13
	8644.51423	5.51363E-5	321157.09949	0.19826	1156.803	4.1202E-13	7.17596E-13
	8634.39303	5.44153E-5	317328.9567	0.1959	1158.159	4.05681E-13	7.09353E-13
	8624.28807	5.40709E-5	315690.20932	0.19489	1159.516	4.0217E-13	7.03729E-13
	8614.21414	5.3421E-5	312260.7953	0.19277	1160.872	3.96409E-13	6.95144E-13
	8604.15632	5.2122E-5	305023.57872	0.1883	1162.229	3.85867E-13	6.81294E-13
	8594.12196	5.09199E-5	298336.95186	0.18418	1163.586	3.76089E-13	6.67396E-13
	8584.11098	5.00962E-5	293853.29198	0.18141	1164.943	3.69144E-13	6.56639E-13
	8574.11594	4.92418E-5	289178.2579	0.17852	1166.301	3.62004E-13	6.46445E-13
	8564.15149	4.83853E-5	284478.82178	0.17562	1167.658	3.54881E-13	6.36957E-13
	8554.20285	4.73374E-5	278641.20133	0.17202	1169.016	3.46388E-13	6.24279E-13
	8544.2773	4.60736E-5	271517.50164	0.16762	1170.374	3.36359E-13	6.09108E-13
	8534.37475	4.54694E-5	268267.59853	0.16561	1171.732	3.31179E-13	6.03442E-13
	8524.48787	4.55558E-5	269089.02327	0.16612	1173.091	3.3104E-13	6.07456E-13
	8514.63112	4.57762E-5	270704.02274	0.16712	1174.449	3.31873E-13	6.1302E-13
	8504.7899	4.60977E-5	272920.40712	0.16849	1175.808	3.33431E-13	6.18141E-13
	8494.9714	4.59233E-5	272202.62985	0.16804	1177.167	3.31404E-13	6.17647E-13
	8485.17555	4.50062E-5	267074.19341	0.16488	1178.526	3.24036E-13	6.09933E-13
	8475.39508	4.50504E-5	267644.92732	0.16523	1179.886	3.23607E-13	6.142E-13
	8465.63713	4.61913E-5	274739.6644	0.16961	1181.246	3.31039E-13	6.3081E-13
	8455.90878	4.69623E-5	279646.96314	0.17264	1182.605	3.35792E-13	6.42465E-13
	8446.18849	4.75379E-5	283399.82803	0.17496	1183.966	3.39126E-13	6.53145E-13
	8436.49764	4.77267E-5	284852.22592	0.17585	1185.326	3.39692E-13	6.59352E-13
	8426.829	4.72335E-5	282232.50253	0.17423	1186.686	3.35412E-13	6.56617E-13
	8417.17541	4.70975E-5	281742.39937	0.17393	1188.047	3.3368E-13	6.59555E-13
	8407.54392	4.73985E-5	283868.09059	0.17524	1189.408	3.35045E-13	6.6801E-13
	8397.93444	4.76415E-5	285649.38767	0.17634	1190.769	3.35993E-13	6.74448E-13
	8388.34691	4.79429E-5	287785.1373	0.17766	1192.13	3.37347E-13	6.83188E-13
	8378.77422	4.77657E-5	287049.162	0.17721	1193.492	3.35334E-13	6.86906E-13
	8369.23036	4.70061E-5	282806.82027	0.17459	1194.853	3.2925E-13	6.81101E-13
	8359.70122	4.67846E-5	281794.87994	0.17396	1196.215	3.26952E-13	6.80293E-13
	8350.19377	4.70733E-5	283856.5882	0.17524	1197.577	3.28222E-13	6.86417E-13
	8340.70095	4.73415E-5	285798.58934	0.17644	1198.94	3.29342E-13	6.93211E-13
	8331.23664	4.77181E-5	288399.59007	0.17804	1200.302	3.31209E-13	7.01157E-13
	8321.78685	4.73591E-5	286555.03941	0.1769	1201.665	3.27972E-13	7.00501E-13
	8312.35848	4.63024E-5	280478.5857	0.17315	1203.028	3.19928E-13	6.91283E-13
	8302.95145	4.59856E-5	278875.41846	0.17216	1204.391	3.1702E-13	6.9216E-13
	8293.56569	4.61078E-5	279932.98322	0.17281	1205.754	3.17144E-13	6.98547E-13
	8284.19425	4.62485E-5	281104.95435	0.17354	1207.118	3.17394E-13	7.0312E-13
	8274.84398	4.66246E-5	283710.73352	0.17515	1208.482	3.19253E-13	7.11472E-13
	8265.51478	4.63524E-5	282373.21773	0.17432	1209.846	3.16674E-13	7.11168E-13
	8256.2066	4.53794E-5	276757.30019	0.17085	1211.21	3.09329E-13	7.00257E-13
	8246.91936	4.46308E-5	272498.10492	0.16822	1212.574	3.03541E-13	6.92188E-13
	8237.64621	4.40847E-5	269467.1461	0.16635	1213.939	2.99154E-13	6.84955E-13
	8228.39388	4.34964E-5	266170.16315	0.16432	1215.304	2.94499E-13	6.77933E-13
	8219.16232	4.30902E-5	263980.7164	0.16297	1216.669	2.91095E-13	6.76703E-13
	8209.95145	4.26133E-5	261351.64124	0.16134	1218.034	2.87228E-13	6.73431E-13
	8200.76119	4.17969E-5	256632.08685	0.15843	1219.399	2.81095E-13	6.62623E-13
	8191.58478	4.11724E-5	253080.78176	0.15624	1220.765	2.76275E-13	6.55367E-13
	8182.43558	4.09584E-5	252046.96374	0.1556	1222.13	2.74226E-13	6.55142E-13
	8173.30012	4.08077E-5	251399.82473	0.1552	1223.496	2.72607E-13	6.54495E-13
	8164.17836	4.05971E-5	250382.02949	0.15457	1224.863	2.70595E-13	6.52714E-13
	8155.08359	3.99698E-5	246788.4154	0.15235	1226.229	2.65821E-13	6.45594E-13
	8146.00243	3.88098E-5	239892.88489	0.1481	1227.596	2.57531E-13	6.30896E-13
	8136.94147	3.82697E-5	236817.83344	0.1462	1228.963	2.53383E-13	6.24908E-13
	8127.90064	3.86367E-5	239355.19043	0.14776	1230.33	2.55245E-13	6.32119E-13
	8118.87989	3.88135E-5	240717.55345	0.14861	1231.697	2.55844E-13	6.37997E-13
	8109.87913	3.85712E-5	239480.40479	0.14784	1233.064	2.53684E-13	6.35488E-13
	8100.89175	3.79649E-5	235977.44191	0.14568	1234.432	2.49143E-13	6.23956E-13
	8091.92426	3.71435E-5	231127.6538	0.14269	1235.8	2.43213E-13	6.10231E-13
	8082.9766	3.70539E-5	230825.33659	0.1425	1237.168	2.4209E-13	6.09252E-13
	8074.04872	3.76154E-5	234582.2195	0.14482	1238.536	2.45216E-13	6.18375E-13
	8065.13402	3.79699E-5	237054.5834	0.14634	1239.905	2.4698E-13	6.23786E-13
	8056.24548	3.83384E-5	239619.42123	0.14793	1241.273	2.48828E-13	6.30718E-13
	8047.37004	3.86402E-5	241771.98908	0.14926	1242.642	2.50234E-13	6.37882E-13
	8038.51413	3.87107E-5	242480.07935	0.14969	1244.011	2.5014E-13	6.39004E-13
	8029.67769	3.92073E-5	245860.75365	0.15178	1245.38	2.52792E-13	6.44545E-13
	8020.85422	4.0153E-5	252068.45595	0.15561	1246.75	2.58321E-13	6.57108E-13
	8012.05012	4.13011E-5	259560.48879	0.16024	1248.12	2.65124E-13	6.71494E-13
	8003.26533	4.26546E-5	268361.06851	0.16567	1249.49	2.73212E-13	6.86852E-13
	7994.49978	4.35036E-5	274002.47396	0.16915	1250.86	2.7804E-13	6.98099E-13
	7985.75342	4.36392E-5	275157.88104	0.16987	1252.23	2.78297E-13	7.01807E-13
	7977.02616	4.46849E-5	282059.39967	0.17413	1253.6	2.84343E-13	7.1647E-13
	7968.31162	4.7138E-5	297869.0554	0.18389	1254.971	2.99298E-13	7.51042E-13
	7959.61609	4.96175E-5	313879.60607	0.19377	1256.342	3.14354E-13	7.85954E-13
	7950.93952	5.15518E-5	326472.33247	0.20155	1257.713	3.25897E-13	8.12075E-13
	7942.27554	5.29384E-5	335619.06948	0.20719	1259.085	3.33934E-13	8.309E-13
	7933.63672	5.39437E-5	342364.83242	0.21136	1260.456	3.39536E-13	8.44198E-13
	7925.01038	5.53413E-5	351617.27095	0.21707	1261.828	3.47575E-13	8.62425E-13
	7916.40279	5.71127E-5	363266.40085	0.22426	1263.2	3.57922E-13	8.863E-13
	7907.81387	5.85943E-5	373094.97067	0.23033	1264.572	3.66411E-13	9.05027E-13
	7899.24357	5.95783E-5	379772.30446	0.23445	1265.944	3.71757E-13	9.18797E-13
	7890.6856	5.98208E-5	381731.88128	0.23566	1267.317	3.72462E-13	9.23491E-13
	7882.14615	5.92666E-5	378605.16154	0.23373	1268.69	3.68213E-13	9.1038E-13
	7873.62517	5.8594E-5	374713.22946	0.23133	1270.063	3.63247E-13	8.93779E-13
	7865.12259	5.81487E-5	372267.72777	0.22982	1271.436	3.59709E-13	8.84094E-13
	7856.63835	5.78072E-5	370480.77766	0.22871	1272.809	3.56825E-13	8.77794E-13
	7848.16624	5.75426E-5	369183.2112	0.22791	1274.183	3.54426E-13	8.72367E-13
	7839.71238	5.65393E-5	363137.33065	0.22418	1275.557	3.47497E-13	8.54967E-13
	7831.27671	5.49393E-5	353240.86451	0.21807	1276.931	3.36936E-13	8.28338E-13
	7822.85918	5.41104E-5	348286.06826	0.21501	1278.305	3.3114E-13	8.12239E-13
	7814.45972	5.39347E-5	347527.89345	0.21454	1279.679	3.29356E-13	8.07434E-13
	7806.07219	5.38824E-5	347564.16794	0.21457	1281.054	3.28331E-13	8.05982E-13
	7797.70264	5.3867E-5	347837.8117	0.21474	1282.429	3.27534E-13	8.01176E-13
	7789.35102	5.3257E-5	344267.48619	0.21253	1283.804	3.23131E-13	7.87953E-13
	7781.01727	5.20606E-5	336894.23328	0.20798	1285.179	3.15197E-13	7.71505E-13
	7772.70134	5.13495E-5	332648.16883	0.20536	1286.554	3.10228E-13	7.61883E-13
	7764.39713	5.12885E-5	332608.35025	0.20533	1287.93	3.09197E-13	7.60043E-13
	7756.11065	5.11927E-5	332341.75621	0.20517	1289.306	3.07961E-13	7.57107E-13
	7747.84184	5.08801E-5	330664.67944	0.20413	1290.682	3.05428E-13	7.50484E-13
	7739.59064	5.00233E-5	325443.25635	0.20091	1292.058	2.99646E-13	7.38666E-13
	7731.35101	4.85108E-5	315939.33	0.19504	1293.435	2.89967E-13	7.17304E-13
	7723.13488	4.7506E-5	309724.49313	0.19121	1294.811	2.83358E-13	7.00176E-13
	7714.93024	4.7359E-5	309094.288	0.19082	1296.188	2.81881E-13	6.97868E-13
	7706.74301	4.70245E-5	307237.69624	0.18967	1297.565	2.79297E-13	6.9419E-13
	7698.56722	4.62403E-5	302434.30757	0.18671	1298.943	2.74056E-13	6.79511E-13
	7690.41467	4.51821E-5	295826.44957	0.18263	1300.32	2.67218E-13	6.62616E-13
	7682.27346	4.3999E-5	288385.42906	0.17803	1301.698	2.5967E-13	6.48999E-13
	7674.14947	4.32461E-5	283751.19413	0.17517	1303.076	2.54688E-13	6.38913E-13
	7666.04265	4.29389E-5	282033.45331	0.17411	1304.454	2.52344E-13	6.31758E-13
	7657.95294	4.29289E-5	282265.53635	0.17425	1305.832	2.51753E-13	6.30495E-13
	7649.87443	4.31839E-5	284242.16347	0.17548	1307.211	2.52715E-13	6.35684E-13
	7641.81878	4.26234E-5	280848.5777	0.17338	1308.589	2.4891E-13	6.30884E-13
	7633.77426	4.1224E-5	271914.28511	0.16786	1309.968	2.40231E-13	6.10868E-13
	7625.74666	4.05088E-5	267477.70171	0.16513	1311.347	2.35567E-13	5.95489E-13
	7617.73011	4.02819E-5	266259.55793	0.16437	1312.727	2.33755E-13	5.88375E-13
	7609.7362	3.97704E-5	263154.81491	0.16246	1314.106	2.30303E-13	5.81479E-13
	7601.75327	3.92142E-5	259746.77375	0.16035	1315.486	2.26606E-13	5.72601E-13
	7593.78707	3.85934E-5	255903.05108	0.15798	1316.866	2.22551E-13	5.60072E-13
	7585.83754	3.79793E-5	252094.73747	0.15563	1318.246	2.18551E-13	5.48567E-13
	7577.90465	3.77264E-5	250678.45109	0.15475	1319.626	2.16642E-13	5.40366E-13
	7569.9826	3.76515E-5	250442.40394	0.15461	1321.007	2.1576E-13	5.31379E-13
	7562.07709	3.74653E-5	249464.25634	0.15401	1322.388	2.14245E-13	5.22461E-13
	7554.18808	3.71949E-5	247922.56193	0.15305	1323.769	2.12255E-13	5.14469E-13
	7546.31551	3.64385E-5	243134.19582	0.1501	1325.15	2.07506E-13	5.01164E-13
	7538.45933	3.52592E-5	235510.85954	0.14539	1326.531	2.00372E-13	4.83491E-13
	7530.61383	3.4826E-5	232859.77101	0.14375	1327.913	1.97499E-13	4.71573E-13
	7522.78463	3.48635E-5	233353.10851	0.14406	1329.295	1.97301E-13	4.61277E-13
	7514.9717	3.45157E-5	231265.4302	0.14277	1330.677	1.94927E-13	4.47373E-13
	7507.17498	3.41006E-5	228721.33902	0.1412	1332.059	1.92183E-13	4.33804E-13
	7499.39442	3.32772E-5	223429.8398	0.13793	1333.441	1.87154E-13	4.1265E-13
	7491.62436	3.19217E-5	214551.3728	0.13245	1334.824	1.79159E-13	3.84415E-13
	7483.87039	3.09696E-5	208367.54367	0.12863	1336.207	1.73456E-13	3.61961E-13
	7476.13245	3.04182E-5	204869.41458	0.12647	1337.59	1.70015E-13	3.43388E-13
	7468.41049	2.96343E-5	199796.17423	0.12334	1338.973	1.65292E-13	3.18495E-13
	7460.70447	2.88939E-5	195005.6508	0.12039	1340.356	1.6083E-13	2.91715E-13
	7453.00878	2.80253E-5	189338.36924	0.11689	1341.74	1.55673E-13	2.66413E-13
	7445.32895	2.68154E-5	181351.7228	0.11196	1343.124	1.48646E-13	2.38068E-13
	7437.66493	2.61076E-5	176746.75387	0.10911	1344.508	1.44424E-13	2.11743E-13
	7430.01667	2.59205E-5	175660.85048	0.10844	1345.892	1.43095E-13	1.88516E-13
	7422.37862	2.57329E-5	174568.55755	0.10777	1347.277	1.41767E-13	1.61114E-13
	7414.76175	2.5357E-5	172195.6692	0.1063	1348.661	1.3941E-13	1.26781E-13
	7407.15502	2.45998E-5	167225.03894	0.10324	1350.046	1.34969E-13	8.93786E-14
	7399.56387	2.36043E-5	160621.94517	0.09916	1351.431	1.29242E-13	2.58483E-14
	7391.9828	2.30593E-5	157074.35218	0.09697	1352.817	1.25999E-13	2.51998E-14
	7384.42271	2.29893E-5	156758.06092	0.09677	1354.202	1.2536E-13	2.5072E-14
	7376.87262	2.27059E-5	154984.04726	0.09568	1355.588	1.23561E-13	2.47123E-14
	7369.33795	2.21749E-5	151514.52834	0.09354	1356.974	1.20426E-13	2.40851E-14
	7361.81866	2.131E-5	145753.45432	0.08998	1358.36	1.15492E-13	2.30985E-14
	7354.3147	2.03694E-5	139462.3136	0.0861	1359.746	1.1017E-13	2.2034E-14
	7346.82602	2.00578E-5	137469.12195	0.08487	1361.132	1.08264E-13	2.16528E-14
	7339.34719	2.00448E-5	137519.55248	0.0849	1362.519	1.07973E-13	2.15946E-14
	7331.88358	1.99542E-5	137037.27204	0.0846	1363.906	1.07267E-13	0
	7324.43512	1.97523E-5	135789.21704	0.08383	1365.293	1.05966E-13	0
	7316.99643	1.93109E-5	132889.57998	0.08204	1366.681	1.03388E-13	0
	7309.57818	1.85815E-5	127999.86338	0.07902	1368.068	9.92809E-14	0
	7302.16962	1.78443E-5	123046.221	0.07596	1369.456	9.51488E-14	0
	7294.77606	1.72977E-5	119397.79237	0.07371	1370.844	9.20474E-14	0
	7287.39747	1.69764E-5	117299.1159	0.07241	1372.232	9.01553E-14	0
	7280.03378	1.68881E-5	116807.02535	0.07211	1373.62	8.95052E-14	0
	7272.67967	1.62372E-5	112418.51686	0.0694	1375.009	8.58817E-14	0
	7265.3404	1.50358E-5	104205.78094	0.06433	1376.398	7.93668E-14	0
	7258.01593	1.43612E-5	99630.48711	0.06151	1377.787	7.56528E-14	0
	7250.70622	1.40525E-5	97587.12077	0.06024	1379.176	7.38776E-14	0
	7243.41121	1.35755E-5	94370.0286	0.05826	1380.565	7.12267E-14	0
	7236.12563	1.31089E-5	91218.03635	0.05631	1381.955	6.86402E-14	0
	7228.85992	1.25639E-5	87513.75832	0.05403	1383.344	6.56546E-14	0
	7221.60357	1.17876E-5	82189.11168	0.05074	1384.734	6.14744E-14	0
	7214.35657	1.10331E-5	77005.06139	0.04754	1386.125	5.74237E-14	0
	7207.12929	1.04237E-5	72824.96173	0.04496	1387.515	5.41435E-14	0
	7199.9113	9.52114E-6	66585.93037	0.04111	1388.906	4.93564E-14	0
	7192.70775	8.22731E-6	57595.22091	0.03556	1390.297	4.2564E-14	0
	7185.52376	7.14333E-6	50056.81059	0.0309	1391.687	3.68823E-14	0
	7178.3438	6.50125E-6	45602.99279	0.02815	1393.079	3.35E-14	0
	7171.18332	5.90889E-6	41489.24829	0.02561	1394.47	3.0387E-14	0
	7164.03197	5.47521E-6	38482.53838	0.02376	1395.862	2.81006E-14	0
	7156.89488	5.34855E-6	37629.85236	0.02323	1397.254	2.73959E-14	0
	7149.77199	5.04004E-6	35494.6066	0.02191	1398.646	2.57643E-14	0
	7142.66327	4.73285E-6	33364.40528	0.0206	1400.038	2.41459E-14	0
	7135.56867	4.62646E-6	32646.8065	0.02015	1401.43	2.35562E-14	0
	7128.48307	4.10576E-6	29001.25124	0.0179	1402.823	2.08635E-14	0
	7121.41152	3.19546E-6	22593.70725	0.01395	1404.216	1.62056E-14	0
	7114.35399	2.79301E-6	19767.7517	0.0122	1405.609	1.41365E-14	0
	7107.31044	2.87574E-6	20373.49067	0.01258	1407.002	1.45265E-14	0
	7100.27577	2.87369E-6	20379.12978	0.01258	1408.396	1.44874E-14	0
	7093.26006	2.77889E-6	19726.33342	0.01218	1409.789	1.39818E-14	0
	7086.25316	2.59084E-6	18409.64384	0.01137	1411.183	1.30099E-14	0
	7079.2601	2.24032E-6	15934.66755	0.00984	1412.577	1.12276E-14	0
	7072.27583	1.87603E-6	13356.74693	0.00825	1413.972	9.38334E-15	0
	7065.31032	1.68536E-6	12011.08185	0.00741	1415.366	8.41308E-15	0
	7058.35353	1.64747E-6	11752.62875	0.00726	1416.761	8.20776E-15	0
	7051.41042	1.6345E-6	11671.58796	0.00721	1418.156	8.12713E-15	0
	7044.48097	1.53495E-6	10971.52907	0.00677	1419.551	7.61717E-15	0
	7037.56512	1.59907E-6	11441.02393	0.00706	1420.946	7.91975E-15	0
	7030.65789	1.90315E-6	13630.05809	0.00841	1422.342	9.4073E-15	0
	7023.7642	2.14221E-6	15357.24965	0.00948	1423.738	1.05682E-14	0
	7016.88895	1.92022E-6	13779.27089	0.00851	1425.133	9.45452E-15	0
	7010.01731	1.44555E-6	10383.26798	0.00641	1426.53	7.10347E-15	0
	7003.16403	1.60744E-6	11557.43244	0.00713	1427.926	7.88358E-15	0
	6996.31924	1.95824E-6	14093.41842	0.0087	1429.323	9.58527E-15	0
	6989.4927	1.93294E-6	13924.91541	0.0086	1430.719	9.44297E-15	0
	6982.67459	2.14767E-6	15487.00329	0.00956	1432.116	1.04716E-14	0
	6975.86977	2.23525E-6	16134.23559	0.00996	1433.513	1.08773E-14	0
	6969.07334	1.81539E-6	13116.39944	0.0081	1434.911	8.81696E-15	0
	6962.295	1.92128E-6	13895.00606	0.00858	1436.308	9.31312E-15	0
	6955.52498	2.48052E-6	17956.96409	0.01109	1437.706	1.20006E-14	0
	6948.76812	2.31711E-6	16790.35028	0.01037	1439.104	1.11883E-14	0
	6942.02438	1.62947E-6	11819.02377	0.0073	1440.502	7.8527E-15	0
	6935.2889	1.2332E-6	8953.42371	0.00553	1441.901	5.93147E-15	0
	6928.57128	1.26585E-6	9199.38361	0.00568	1443.299	6.07672E-15	0
	6921.86187	1.35324E-6	9844.00196	0.00608	1444.698	6.48365E-15	0
	6915.16544	1.32792E-6	9669.15987	0.00597	1446.097	6.35003E-15	0
	6908.48196	1.44796E-6	10553.45272	0.00652	1447.496	6.91069E-15	0
	6901.80662	1.59298E-6	11621.67387	0.00717	1448.896	7.58816E-15	0
	6895.14892	1.60775E-6	11740.73006	0.00725	1450.295	7.64373E-15	0
	6888.49931	1.53197E-6	11198.14902	0.00691	1451.695	7.26941E-15	0
	6881.86251	1.40325E-6	10267.13527	0.00634	1453.095	6.64579E-15	0
	6875.23848	1.256E-6	9198.60358	0.00568	1454.495	5.93696E-15	0
	6868.62248	1.1708E-6	8582.9149	0.0053	1455.896	5.52361E-15	0
	6862.0192	1.45716E-6	10692.3864	0.0066	1457.297	6.86135E-15	0
	6855.42861	1.58344E-6	11630.24781	0.00718	1458.698	7.4417E-15	0
	6848.85066	1.24258E-6	9135.39806	0.00564	1460.099	5.82854E-15	0
	6842.28532	1.21757E-6	8960.08823	0.00553	1461.5	5.70027E-15	0
	6835.73256	1.21598E-6	8957.02126	0.00553	1462.901	5.68196E-15	0
	6829.18767	1.00846E-6	7435.51979	0.00459	1464.303	4.70325E-15	0
	6822.65531	1.27296E-6	9394.65227	0.0058	1465.705	5.92544E-15	0
	6816.13543	1.87169E-6	13826.64436	0.00854	1467.107	8.69582E-15	0
	6809.628	2.24993E-6	16636.64291	0.01027	1468.509	1.04331E-14	0
	6803.12835	2.3809E-6	17621.91828	0.01088	1469.912	1.10194E-14	0
	6796.64572	2.36931E-6	17552.88356	0.01084	1471.314	1.09449E-14	0
	6790.17082	2.31506E-6	17167.32374	0.0106	1472.717	1.06739E-14	0
	6783.70825	2.22391E-6	16507.10551	0.01019	1474.12	1.02341E-14	0
	6777.25337	1.78153E-6	13236.10629	0.00817	1475.524	8.18278E-15	0
	6770.81535	1.40165E-6	10423.65843	0.00643	1476.927	6.42573E-15	0
	6764.38497	1.42507E-6	10607.85635	0.00655	1478.331	6.52066E-15	0
	6757.9668	1.53653E-6	11448.41617	0.00707	1479.735	7.01734E-15	0
	6751.56079	1.77158E-6	13212.27856	0.00816	1481.139	8.0755E-15	0
	6745.16692	2.18381E-6	16302.07958	0.01006	1482.543	9.93574E-15	0
	6738.7806	2.30303E-6	17208.30944	0.01062	1483.948	1.04583E-14	0
	6732.40637	1.89325E-6	14159.81351	0.00874	1485.353	8.58119E-15	0
	6726.04418	1.82115E-6	13633.44888	0.00842	1486.758	8.2388E-15	0
	6719.69401	2.17319E-6	16284.30903	0.01005	1488.163	9.81289E-15	0
	6713.35582	2.28942E-6	17171.41838	0.0106	1489.568	1.03182E-14	0
	6707.02507	2.48716E-6	18672.19468	0.01153	1490.974	1.11883E-14	0
	6700.70625	2.74073E-6	20595.20756	0.01271	1492.38	1.23057E-14	0
	6694.39933	2.7504E-6	20687.37622	0.01277	1493.786	1.23259E-14	0
	6688.10427	2.5898E-6	19497.73437	0.01204	1495.192	1.15844E-14	0
	6681.82104	2.31497E-6	17445.00516	0.01077	1496.598	1.03356E-14	0
	6675.54514	2.21045E-6	16673.05646	0.01029	1498.005	9.85042E-15	0
	6669.28102	2.17415E-6	16414.6614	0.01013	1499.412	9.67048E-15	0
	6663.02865	2.04974E-6	15489.83544	0.00956	1500.819	9.09999E-15	0
	6656.78799	2.22345E-6	16818.32484	0.01038	1502.226	9.85272E-15	0
	6650.55901	2.57164E-6	19470.28596	0.01202	1503.633	1.13743E-14	0
	6644.33726	2.68759E-6	20367.22918	0.01257	1505.041	1.1865E-14	0
	6638.12715	2.92348E-6	22175.62252	0.01369	1506.449	1.28823E-14	0
	6631.92862	3.23889E-6	24591.03468	0.01518	1507.857	1.42454E-14	0
	6625.74167	3.18269E-6	24186.9258	0.01493	1509.265	1.39722E-14	0
	6619.56625	2.97282E-6	22613.12382	0.01396	1510.673	1.30265E-14	0
	6613.39795	3.12195E-6	23769.58452	0.01467	1512.082	1.36545E-14	0
	6607.24114	3.58394E-6	27312.47358	0.01686	1513.491	1.56459E-14	0
	6601.09578	3.98512E-6	30398.0721	0.01877	1514.9	1.73649E-14	0
	6594.96184	4.24127E-6	32382.01941	0.01999	1516.309	1.84468E-14	0
	6588.83496	4.23482E-6	32362.87979	0.01998	1517.719	1.83845E-14	0
	6582.72377	4.37863E-6	33492.92857	0.02068	1519.128	1.89736E-14	0
	6576.61959	4.67873E-6	35821.66517	0.02211	1520.538	2.02364E-14	0
	6570.52672	4.65307E-6	35658.27801	0.02201	1521.948	2.00882E-14	0
	6564.44082	4.71042E-6	36131.24376	0.02231	1523.359	2.02981E-14	0
	6558.37048	4.7675E-6	36602.93187	0.0226	1524.769	2.05061E-14	0
	6552.30707	4.58369E-6	35224.24256	0.02175	1526.18	1.9679E-14	0
	6546.25485	4.76147E-6	36624.26904	0.02261	1527.591	2.04045E-14	0
	6540.21381	4.89579E-6	37692.2118	0.02327	1529.002	2.09414E-14	0
	6534.18391	4.28454E-6	33016.67653	0.02038	1530.413	1.82931E-14	0
	6528.16085	4.1046E-6	31659.27394	0.01954	1531.825	1.74925E-14	0
	6522.15315	4.88098E-6	37682.25036	0.02326	1533.236	2.07629E-14	0
	6516.15224	5.56219E-6	42980.89621	0.02653	1534.648	2.36172E-14	0
	6510.16236	5.78043E-6	44708.39354	0.0276	1536.06	2.44987E-14	0
	6504.17926	5.44059E-6	42118.66724	0.026	1537.473	2.30161E-14	0
	6498.21137	4.78546E-6	37080.9605	0.02289	1538.885	2.02075E-14	0
	6492.2502	4.67296E-6	36242.45525	0.02237	1540.298	1.96962E-14	0
	6486.29996	5.07655E-6	39408.7602	0.02433	1541.711	2.13581E-14	0
	6480.36062	5.35272E-6	41590.72547	0.02568	1543.124	2.24788E-14	0
	6474.42795	5.83081E-6	45346.97724	0.02799	1544.538	2.44417E-14	0
	6468.51032	6.34153E-6	49364.05997	0.03047	1545.951	2.6534E-14	0
	6462.59932	6.49177E-6	50579.74899	0.03123	1547.365	2.7113E-14	0
	6456.69912	6.97952E-6	54429.64582	0.0336	1548.779	2.90969E-14	0
	6450.80967	7.43416E-6	58028.1385	0.03582	1550.193	3.09357E-14	0
	6444.92681	7.20073E-6	56257.36258	0.03473	1551.608	2.99097E-14	0
	6439.05882	6.96456E-6	54461.78516	0.03362	1553.022	2.88761E-14	0
	6433.19736	6.71408E-6	52550.8932	0.03244	1554.437	2.77869E-14	0
	6427.34656	5.85793E-6	45891.61704	0.02833	1555.852	2.41996E-14	0
	6421.5064	5.2995E-6	41554.54167	0.02565	1557.267	2.18529E-14	0
	6415.67683	5.84646E-6	45885.07134	0.02833	1558.682	2.40646E-14	0
	6409.85374	6.6752E-6	52436.92508	0.03237	1560.098	2.74259E-14	0
	6404.04121	6.84028E-6	53782.40508	0.0332	1561.514	2.80532E-14	0
	6398.2392	6.74609E-6	53089.95089	0.03277	1562.93	2.76168E-14	0
	6392.44771	7.05493E-6	55570.72036	0.03431	1564.346	2.88288E-14	0
	6386.6626	7.30042E-6	57556.55726	0.03553	1565.763	2.9778E-14	0
	6380.89204	7.25686E-6	57264.87049	0.03535	1567.179	2.95469E-14	0
	6375.12782	7.34924E-6	58046.22673	0.03583	1568.596	2.98689E-14	0
	6369.37401	7.48303E-6	59156.3473	0.03652	1570.013	3.03578E-14	0
	6363.62653	7.40391E-6	58583.74823	0.03617	1571.431	2.99827E-14	0
	6357.89345	7.36571E-6	58334.04418	0.03601	1572.848	2.97743E-14	0
	6352.16666	7.48933E-6	59366.58033	0.03665	1574.266	3.02195E-14	0
	6346.4542	7.75138E-6	61499.07987	0.03797	1575.683	3.12206E-14	0
	6340.74397	7.72574E-6	61350.83676	0.03787	1577.102	3.10614E-14	0
	6335.04802	7.11756E-6	56572.03785	0.03492	1578.52	2.85648E-14	0
	6329.36229	6.72546E-6	53503.54527	0.03303	1579.938	2.69427E-14	0
